trial_index,trial_time,response_arrow_start_angle,motion_direction,motion_coherence,estimate_x,estimate_y,reaction_time,raw_response_time,prior_std,prior_mean,subject_id,experiment_name,experiment_id,session_id,run_id
1,0,237,215,0.12,-0.8293742122,-2.358418626,0.83691,2.142487,10,225,3,data01_direction4priors,12,8,35
2,2.365115,32,235,0.06,-1.786553393,-1.748778709,2.297035,5.958522,10,225,3,data01_direction4priors,12,8,35
3,6.188553,237,225,0.12,-1.955450963,-1.5576301,0.689224,8.174398,10,225,3,data01_direction4priors,12,8,35
4,8.404594,164,215,0.06,-2.497852501,0.1035996295,0.905501,10.606601,10,225,3,data01_direction4priors,12,8,35
5,10.830531,28,235,0.06,-2.080010352,-1.386923551,2.10358,14.230635,10,225,3,data01_direction4priors,12,8,35
6,14.454277,45,215,0.06,-1.871593716,-1.657448932,1.823626,17.574434,10,225,3,data01_direction4priors,12,8,35
7,17.798516,121,235,0.12,-1.577302301,-1.939617862,1.471545,20.566559,10,225,3,data01_direction4priors,12,8,35
8,20.79329,170,205,0.12,-1.624893334,-1.89992675,0.956675,23.046599,10,225,3,data01_direction4priors,12,8,35
9,23.269107,49,235,0.12,-2.125271363,-1.316518756,1.545111,26.110693,10,225,3,data01_direction4priors,12,8,35
10,26.333808,86,225,0.06,-1.520130604,-1.984742539,1.68012,29.310433,10,225,3,data01_direction4priors,12,8,35
11,29.538242,276,205,0.06,-1.890488872,-1.635864244,1.219878,32.054672,10,225,3,data01_direction4priors,12,8,35
12,32.283617,247,215,0.12,-0.9818860254,-2.299108487,1.362535,34.942626,10,225,3,data01_direction4priors,12,8,35
13,35.168616,252,235,0.12,-1.320243098,-2.122959765,1.453543,37.9187,10,225,3,data01_direction4priors,12,8,35
14,38.143501,200,225,0.06,-1.692961309,-1.839533095,1.086639,40.52662,10,225,3,data01_direction4priors,12,8,35
15,40.749097,165,225,0.12,-1.482530664,-2.012983564,1.401001,43.446598,10,225,3,data01_direction4priors,12,8,35
16,43.674106,262,225,0.06,-0.931537544,-2.319965044,0.971997,45.942546,10,225,3,data01_direction4priors,12,8,35
17,46.169691,240,235,0.06,-1.871251025,-1.657835819,0.684105,48.150398,10,225,3,data01_direction4priors,12,8,35
18,48.375888,71,235,0.06,-1.054442429,-2.26674903,1.502136,51.174507,10,225,3,data01_direction4priors,12,8,35
19,51.40073,143,245,0.06,-1.282695526,-2.145854652,1.053198,53.750505,10,225,3,data01_direction4priors,12,8,35
20,53.976361,37,245,0.06,-2.187736059,-1.209880547,2.36583,57.6386,10,225,3,data01_direction4priors,12,8,35
21,57.859646,233,235,0.06,-1.172086369,-2.208215013,0.666521,59.822609,10,225,3,data01_direction4priors,12,8,35
22,60.045836,0,225,0.12,-1.706661099,-1.826830012,1.16032,62.502696,10,225,3,data01_direction4priors,12,8,35
23,62.7314,41,225,0.06,-1.646587038,-1.881156858,1.362709,65.390639,10,225,3,data01_direction4priors,12,8,35
24,65.616319,10,235,0.06,-1.526602525,-1.979768858,1.813583,68.726433,10,225,3,data01_direction4priors,12,8,35
25,68.950525,312,215,0.06,-1.77440581,-1.76110307,1.471743,71.718781,10,225,3,data01_direction4priors,12,8,35
26,71.945464,29,215,0.12,-1.935194658,-1.582726013,1.46873,74.710618,10,225,3,data01_direction4priors,12,8,35
27,74.940352,309,235,0.12,-1.068286918,-2.2602573,1.009721,77.246566,10,225,3,data01_direction4priors,12,8,35
28,77.47591,208,235,0.12,-1.251524764,-2.16418247,0.994171,79.766556,10,225,3,data01_direction4priors,12,8,35
29,79.991614,14,225,0.12,-2.353752329,-0.8425259471,1.230453,82.518598,10,225,3,data01_direction4priors,12,8,35
30,82.746863,97,235,0.06,-1.288809113,-2.142188383,1.307154,85.350578,10,225,3,data01_direction4priors,12,8,35
31,85.572002,86,225,0.06,-1.520130604,-1.984742539,1.297946,88.166416,10,225,3,data01_direction4priors,12,8,35
32,88.387148,306,235,0.12,-0.8192792665,-2.361944429,0.875022,90.558712,10,225,3,data01_direction4priors,12,8,35
33,90.783205,97,225,0.12,-1.455879452,-2.03234225,1.247125,93.326642,10,225,3,data01_direction4priors,12,8,35
34,93.548262,121,205,0.06,-1.577302301,-1.939617862,1.585611,96.430438,10,225,3,data01_direction4priors,12,8,35
35,96.653034,202,245,0.12,-0.948211338,-2.31320022,0.937012,98.886436,10,225,3,data01_direction4priors,12,8,35
36,99.10867,1,225,0.06,-1.005570767,-2.288848495,1.161265,101.566553,10,225,3,data01_direction4priors,12,8,35
37,101.794176,168,225,0.24,-1.203902305,-2.191031547,1.307898,104.398543,10,225,3,data01_direction4priors,12,8,35
38,104.619279,36,225,0.06,-1.505531009,-1.995839768,1.722783,107.638619,10,225,3,data01_direction4priors,12,8,35
39,107.8637,88,215,0.06,-1.282547649,-2.145943039,1.30253,110.462695,10,225,3,data01_direction4priors,12,8,35
40,110.688898,54,235,0.06,-1.876426088,-1.65197613,1.365355,113.350649,10,225,3,data01_direction4priors,12,8,35
41,113.573914,256,225,0.06,-0.8019316344,-2.367890549,1.032175,115.902602,10,225,3,data01_direction4priors,12,8,35
42,116.129485,268,225,0.12,-1.71705154,-1.81706742,0.804627,118.230679,10,225,3,data01_direction4priors,12,8,35
43,118.455411,1,215,0.06,-1.005570767,-2.288848495,1.414728,121.166703,10,225,3,data01_direction4priors,12,8,35
44,121.390469,280,215,0.24,-1.907054766,-1.616521611,0.831657,123.518655,10,225,3,data01_direction4priors,12,8,35
45,123.746474,155,215,0.12,-1.347664752,-2.105658974,1.323736,126.366647,10,225,3,data01_direction4priors,12,8,35
46,126.591471,352,225,0.24,-1.669090267,-1.861219407,1.334448,129.222445,10,225,3,data01_direction4priors,12,8,35
47,129.446596,116,215,0.12,-1.591354696,-1.928105347,1.543378,132.286551,10,225,3,data01_direction4priors,12,8,35
48,132.511324,286,235,0.12,-1.248587215,-2.165878567,0.830791,134.638671,10,225,3,data01_direction4priors,12,8,35
49,134.867299,125,235,0.12,-1.093996968,-2.247925852,1.330825,137.494645,10,225,3,data01_direction4priors,12,8,35
50,137.722382,5,235,0.06,-1.378697648,-2.08547184,1.923798,140.942615,10,225,3,data01_direction4priors,12,8,35
51,141.166469,41,235,0.12,-1.85461275,-1.676428211,1.831507,144.294591,10,225,3,data01_direction4priors,12,8,35
52,144.520684,124,235,0.24,-1.133062062,-2.228490602,1.525537,147.34271,10,225,3,data01_direction4priors,12,8,35
53,147.565517,123,205,0.06,-1.508649764,-1.993483356,1.368842,150.230736,10,225,3,data01_direction4priors,12,8,35
54,150.46053,271,235,0.24,-1.462227664,-2.027779638,1.313547,153.070569,10,225,3,data01_direction4priors,12,8,35
55,153.29555,275,215,0.24,-2.040686988,-1.444159484,1.438573,156.030721,10,225,3,data01_direction4priors,12,8,35
56,156.260505,96,235,0.06,-1.646716668,-1.881043385,1.633417,159.190471,10,225,3,data01_direction4priors,12,8,35
57,159.415034,74,215,0.24,-1.616357912,-1.907193514,1.582996,162.294619,10,225,3,data01_direction4priors,12,8,35
58,162.519714,231,215,0.12,-1.866401563,-1.663293482,0.75858,164.574779,10,225,3,data01_direction4priors,12,8,35
59,164.795877,332,205,0.06,-1.572167042,-1.943782599,1.482258,167.574677,10,225,3,data01_direction4priors,12,8,35
60,167.800551,92,235,0.06,-1.627469689,-1.897720319,2.221545,171.318667,10,225,3,data01_direction4priors,12,8,35
61,171.544281,178,235,0.06,-1.344661286,-2.107578237,1.093862,173.934669,10,225,3,data01_direction4priors,12,8,35
62,174.15974,207,235,0.24,-0.7429944243,-2.387039858,1.086346,176.542628,10,225,3,data01_direction4priors,12,8,35
63,176.765255,192,225,0.06,-1.65513453,-1.873640758,1.000641,179.062442,10,225,3,data01_direction4priors,12,8,35
64,179.290849,289,225,0.12,-1.630696064,-1.89494864,1.771015,182.358525,10,225,3,data01_direction4priors,12,8,35
65,182.585227,230,215,0.24,-1.611176543,-1.911572689,0.748823,184.630631,10,225,3,data01_direction4priors,12,8,35
66,184.851383,234,225,0.06,-1.776793669,-1.758693906,1.138744,187.286652,10,225,3,data01_direction4priors,12,8,35
67,187.5168,297,235,0.06,-1.351100363,-2.103456158,1.29738,190.110609,10,225,3,data01_direction4priors,12,8,35
68,190.331948,11,205,0.06,-1.491818285,-2.006110217,1.914227,193.542709,10,225,3,data01_direction4priors,12,8,35
69,193.766056,113,235,0.24,-0.8392917072,-2.354907521,1.424201,196.486768,10,225,3,data01_direction4priors,12,8,35
70,196.710999,290,225,0.24,-1.883361418,-1.644065014,1.014931,199.022449,10,225,3,data01_direction4priors,12,8,35
71,199.246543,171,245,0.06,-1.087582667,-2.251036193,2.45551,202.998678,10,225,3,data01_direction4priors,12,8,35
72,203.219799,28,215,0.24,-1.690717672,-1.841595437,1.618234,206.134625,10,225,3,data01_direction4priors,12,8,35
73,206.364389,136,225,0.06,-1.687454876,-1.844585602,1.409528,209.070454,10,225,3,data01_direction4priors,12,8,35
74,209.299275,0,215,0.24,-2.091987028,-1.368791539,1.706859,212.302732,10,225,3,data01_direction4priors,12,8,35
75,212.5238,130,215,0.06,-1.423261997,-2.055316347,1.258365,215.078705,10,225,3,data01_direction4priors,12,8,35
76,215.308999,28,235,0.12,-1.375722932,-2.087435368,2.088856,218.694455,10,225,3,data01_direction4priors,12,8,35
77,218.922732,119,235,0.24,-1.14922525,-2.220198488,1.243469,221.462713,10,225,3,data01_direction4priors,12,8,35
78,221.68805,120,225,0.12,-1.110302411,-2.239917087,1.277849,224.262435,10,225,3,data01_direction4priors,12,8,35
79,224.483258,155,215,0.12,-0.9949816003,-2.29347152,1.138815,226.91861,10,225,3,data01_direction4priors,12,8,35
80,227.148645,16,215,0.12,-1.914283921,-1.607954312,1.577346,230.022551,10,225,3,data01_direction4priors,12,8,35
81,230.243343,230,215,0.12,-2.01938281,-1.473802249,1.130724,232.670613,10,225,3,data01_direction4priors,12,8,35
82,232.898722,5,225,0.06,-1.693341567,-1.839183063,2.227255,236.422584,10,225,3,data01_direction4priors,12,8,35
83,236.652258,24,205,0.24,-2.171690447,-1.238450888,1.89761,239.846487,10,225,3,data01_direction4priors,12,8,35
84,240.076449,301,225,0.12,-1.829819595,-1.703455385,1.537556,242.910565,10,225,3,data01_direction4priors,12,8,35
85,243.131307,145,225,0.06,-1.540405311,-1.969048369,1.098953,245.526695,10,225,3,data01_direction4priors,12,8,35
86,245.756727,86,225,0.24,-1.520130604,-1.984742539,1.393408,248.446627,10,225,3,data01_direction4priors,12,8,35
87,248.671621,337,225,0.06,-1.709263926,-1.824394922,1.254401,251.222629,10,225,3,data01_direction4priors,12,8,35
88,251.446947,349,225,0.06,-1.764211534,-1.771315235,1.527162,254.270614,10,225,3,data01_direction4priors,12,8,35
89,254.491651,229,225,0.06,-1.644292697,-1.883162639,0.818427,256.606648,10,225,3,data01_direction4priors,12,8,35
90,256.8277,344,225,0.06,-1.630826643,-1.894836262,1.274249,259.398456,10,225,3,data01_direction4priors,12,8,35
91,259.622768,279,225,0.24,-2.255797684,-1.077671938,1.255319,262.174726,10,225,3,data01_direction4priors,12,8,35
92,262.398028,13,225,0.06,-1.730458436,-1.804304188,1.560112,265.254729,10,225,3,data01_direction4priors,12,8,35
93,265.482775,218,245,0.06,-1.844440751,-1.687613201,1.051345,267.830721,10,225,3,data01_direction4priors,12,8,35
94,268.058373,32,235,0.12,-1.319657863,-2.123323603,2.667807,272.022604,10,225,3,data01_direction4priors,12,8,35
95,272.251123,226,235,0.12,-1.264143761,-2.156835773,1.114963,274.66268,10,225,3,data01_direction4priors,12,8,35
96,274.886591,219,225,0.24,-1.671485956,-1.859068234,1.151493,277.334592,10,225,3,data01_direction4priors,12,8,35
97,277.562048,229,225,0.06,-1.4885414,-2.00854288,1.324176,280.18263,10,225,3,data01_direction4priors,12,8,35
98,280.407146,271,225,0.24,-2.136455451,-1.298290456,1.686894,283.390552,10,225,3,data01_direction4priors,12,8,35
99,283.611686,313,225,0.06,-1.594632819,-1.925395069,1.114472,286.022635,10,225,3,data01_direction4priors,12,8,35
100,286.247083,163,235,0.06,-1.551879659,-1.960017735,1.366835,288.91046,10,225,3,data01_direction4priors,12,8,35
101,289.132071,167,225,0.24,-1.722100957,-1.81228262,1.154053,291.582657,10,225,3,data01_direction4priors,12,8,35
102,291.807563,192,245,0.12,-1.33548888,-2.11340234,0.990564,294.094724,10,225,3,data01_direction4priors,12,8,35
103,294.323222,168,225,0.06,-1.024956256,-2.280233469,1.210929,296.8307,10,225,3,data01_direction4priors,12,8,35
104,297.058485,344,225,0.06,-1.474185521,-2.019103031,1.475498,299.830536,10,225,3,data01_direction4priors,12,8,35
105,300.053397,287,215,0.12,-1.966824051,-1.543244359,1.208854,302.55864,10,225,3,data01_direction4priors,12,8,35
106,302.788677,356,215,0.12,-1.687963264,-1.844120392,1.657416,305.742613,10,225,3,data01_direction4priors,12,8,35
107,305.963188,238,215,0.12,-2.048988384,-1.43235701,0.802902,308.062641,10,225,3,data01_direction4priors,12,8,35
108,308.289193,310,235,0.06,-1.8347865,-1.698104384,1.012942,310.598529,10,225,3,data01_direction4priors,12,8,35
109,310.824779,231,225,0.12,-1.417537485,-2.059268676,1.317274,313.43863,10,225,3,data01_direction4priors,12,8,35
110,313.659961,77,225,0.06,-1.350520503,-2.103828503,1.738393,316.694896,10,225,3,data01_direction4priors,12,8,35
111,316.924423,43,225,0.12,-1.794976469,-1.740132028,1.825821,320.046729,10,225,3,data01_direction4priors,12,8,35
112,320.268614,198,225,0.12,-1.45021874,-2.036385426,1.009482,322.574585,10,225,3,data01_direction4priors,12,8,35
113,322.804325,233,215,0.12,-2.337244379,-0.8872929123,0.777817,324.878646,10,225,3,data01_direction4priors,12,8,35
114,325.100249,121,205,0.06,-1.417253658,-2.059464025,1.153744,327.550592,10,225,3,data01_direction4priors,12,8,35
115,327.775742,245,235,0.06,-2.203161604,-1.181557848,0.854439,329.926588,10,225,3,data01_direction4priors,12,8,35
116,330.151594,39,235,0.06,-1.560114182,-1.953469667,1.52649,332.974659,10,225,3,data01_direction4priors,12,8,35
117,333.196423,165,235,0.12,-1.31692213,-2.125021436,1.409688,335.902615,10,225,3,data01_direction4priors,12,8,35
118,336.131375,229,215,0.12,-1.923312707,-1.597143773,0.922755,338.350649,10,225,3,data01_direction4priors,12,8,35
119,338.577146,166,225,0.12,-1.279634818,-2.147681245,1.069065,340.942681,10,225,3,data01_direction4priors,12,8,35
120,341.172672,145,225,0.24,-1.378122744,-2.085851793,1.465522,343.934732,10,225,3,data01_direction4priors,12,8,35
121,344.157502,54,225,0.12,-1.353518617,-2.101900891,1.896493,347.350592,10,225,3,data01_direction4priors,12,8,35
122,347.571614,195,225,0.12,-1.706283394,-1.827182798,0.946273,349.814492,10,225,3,data01_direction4priors,12,8,35
123,350.037459,237,215,0.12,-1.955450963,-1.5576301,0.92076,352.25474,10,225,3,data01_direction4priors,12,8,35
124,352.483274,192,215,0.06,-1.33548888,-2.11340234,1.106914,354.886661,10,225,3,data01_direction4priors,12,8,35
125,355.108722,303,235,0.06,-1.622445061,-1.902017882,1.385381,357.790707,10,225,3,data01_direction4priors,12,8,35
126,358.013721,151,225,0.06,-1.152542361,-2.218478331,1.336504,360.646674,10,225,3,data01_direction4priors,12,8,35
127,360.868888,321,225,0.12,-1.91417311,-1.608086224,1.841222,364.006603,10,225,3,data01_direction4priors,12,8,35
128,364.233057,131,225,0.24,-1.70081382,-1.832275184,1.501021,367.030609,10,225,3,data01_direction4priors,12,8,35
129,367.257832,196,225,0.24,-1.356948086,-2.099688523,1.100091,369.654468,10,225,3,data01_direction4priors,12,8,35
130,369.883267,217,215,0.06,-1.735348278,-1.799601721,1.050783,372.230648,10,225,3,data01_direction4priors,12,8,35
131,372.458902,246,235,0.06,-1.687709086,-1.844353015,0.955258,374.710694,10,225,3,data01_direction4priors,12,8,35
132,374.934683,38,205,0.24,-1.593969316,-1.925944397,1.607321,377.838506,10,225,3,data01_direction4priors,12,8,35
133,378.059283,179,225,0.12,-2.239745244,-1.110649019,1.090896,380.446616,10,225,3,data01_direction4priors,12,8,35
134,380.674795,352,245,0.24,-0.9988822102,-2.291775366,1.979397,383.950708,10,225,3,data01_direction4priors,12,8,35
135,384.178793,278,215,0.06,-1.690463842,-1.841828439,1.051438,386.526739,10,225,3,data01_direction4priors,12,8,35
136,386.754326,240,225,0.06,-1.583226636,-1.934785109,0.803798,388.854655,10,225,3,data01_direction4priors,12,8,35
137,389.080273,186,215,0.06,-1.841916319,-1.690368089,1.24592,391.622738,10,225,3,data01_direction4priors,12,8,35
138,391.845659,39,215,0.06,-1.399013548,-2.071897944,1.608567,394.750652,10,225,3,data01_direction4priors,12,8,35
139,394.980268,73,225,0.06,-1.493986361,-2.004496134,1.649916,397.926658,10,225,3,data01_direction4priors,12,8,35
140,398.154745,80,225,0.12,-1.408147327,-2.065701117,1.859564,401.310741,10,225,3,data01_direction4priors,12,8,35
141,401.538971,242,225,0.06,-1.668833733,-1.861449428,1.563264,404.398728,10,225,3,data01_direction4priors,12,8,35
142,404.62361,256,235,0.24,-1.660727961,-1.868684735,1.094555,407.014716,10,225,3,data01_direction4priors,12,8,35
143,407.239118,77,215,0.06,-1.350520503,-2.103828503,1.807092,410.34274,10,225,3,data01_direction4priors,12,8,35
144,410.563437,107,225,0.12,-1.873384608,-1.65542445,2.082772,413.942723,10,225,3,data01_direction4priors,12,8,35
145,414.167221,308,225,0.12,-1.756373997,-1.779086952,1.142861,416.606612,10,225,3,data01_direction4priors,12,8,35
146,416.832646,69,205,0.12,-1.473489737,-2.019610852,1.853288,419.982506,10,225,3,data01_direction4priors,12,8,35
147,420.206806,203,235,0.24,-1.435383265,-2.046869532,0.943322,422.44668,10,225,3,data01_direction4priors,12,8,35
148,422.672599,315,235,0.06,-1.679805035,-1.851554764,1.765452,425.734553,10,225,3,data01_direction4priors,12,8,35
149,425.956946,212,215,0.06,-2.010740326,-1.485571722,1.31311,428.566599,10,225,3,data01_direction4priors,12,8,35
150,428.792026,36,225,0.12,-1.727884231,-1.806769516,2.094071,432.182652,10,225,3,data01_direction4priors,12,8,35
151,432.405855,67,215,0.06,-1.543075529,-1.96695651,2.0003,435.702723,10,225,3,data01_direction4priors,12,8,35
152,435.929806,7,225,0.12,-1.628123466,-1.89715945,2.08411,439.310484,10,225,3,data01_direction4priors,12,8,35
153,439.533555,305,225,0.12,-1.847077164,-1.684727263,1.224641,442.054721,10,225,3,data01_direction4priors,12,8,35
154,442.278896,97,245,0.24,-1.613637131,-1.909496062,1.951298,445.526692,10,225,3,data01_direction4priors,12,8,35
155,445.753023,240,225,0.06,-1.732780773,-1.802074026,0.789233,447.83872,10,225,3,data01_direction4priors,12,8,35
156,448.068985,238,225,0.06,-1.156009654,-2.216673562,0.913209,450.278595,10,225,3,data01_direction4priors,12,8,35
157,450.504829,336,225,0.12,-1.740843679,-1.794286289,1.293393,453.094664,10,225,3,data01_direction4priors,12,8,35
158,453.319931,110,235,0.24,-1.482391943,-2.013085723,1.662266,456.278728,10,225,3,data01_direction4priors,12,8,35
159,456.504521,212,225,0.06,-1.273505606,-2.151321331,1.341485,459.142483,10,225,3,data01_direction4priors,12,8,35
160,459.369444,63,225,0.06,-1.359651159,-2.097939162,1.908688,462.574771,10,225,3,data01_direction4priors,12,8,35
161,462.803649,152,225,0.24,-1.897356274,-1.62789409,1.058625,465.158737,10,225,3,data01_direction4priors,12,8,35
162,465.379217,173,225,0.06,-1.523231991,-1.982363312,1.331004,468.006704,10,225,3,data01_direction4priors,12,8,35
163,468.234286,14,235,0.06,-1.839854403,-1.692612117,1.532007,471.062721,10,225,3,data01_direction4priors,12,8,35
164,471.289033,201,225,0.06,-1.505943585,-1.995528481,0.893208,473.478738,10,225,3,data01_direction4priors,12,8,35
165,473.704913,85,215,0.06,-1.393099943,-2.075878741,1.277289,476.278614,10,225,3,data01_direction4priors,12,8,35
166,476.500042,45,215,0.24,-2.111750172,-1.338099852,1.833796,479.630478,10,225,3,data01_direction4priors,12,8,35
167,479.854244,172,235,0.12,-1.557597005,-1.955477325,1.015707,482.166499,10,225,3,data01_direction4priors,12,8,35
168,482.389974,150,245,0.06,-1.526056753,-1.980189584,1.056089,484.742607,10,225,3,data01_direction4priors,12,8,35
169,484.965531,62,235,0.06,-1.22585884,-2.178823101,1.416567,487.678691,10,225,3,data01_direction4priors,12,8,35
170,487.90048,335,225,0.12,-1.771893153,-1.763631099,1.697567,490.894584,10,225,3,data01_direction4priors,12,8,35
171,491.114968,85,225,0.24,-1.554537615,-1.957910316,1.427305,493.838826,10,225,3,data01_direction4priors,12,8,35
172,494.059836,128,225,0.12,-1.649526309,-1.878580037,1.586311,496.942734,10,225,3,data01_direction4priors,12,8,35
173,497.164486,229,215,0.24,-2.15320086,-1.270325177,0.921384,499.382489,10,225,3,data01_direction4priors,12,8,35
174,499.610233,248,235,0.12,-0.7535259457,-2.383736279,0.931847,501.838731,10,225,3,data01_direction4priors,12,8,35
175,502.066159,131,215,0.06,-1.387175011,-2.07984266,1.811976,505.174646,10,225,3,data01_direction4priors,12,8,35
176,505.400423,294,215,0.24,-1.764089466,-1.771436805,1.165781,507.862732,10,225,3,data01_direction4priors,12,8,35
177,508.08579,343,225,0.06,-1.509199202,-1.993067427,1.448503,510.830724,10,225,3,data01_direction4priors,12,8,35
178,511.060678,167,225,0.06,-1.861421184,-1.668865236,1.305464,513.662685,10,225,3,data01_direction4priors,12,8,35
179,513.885809,23,215,0.12,-1.635571677,-1.890741995,1.632262,516.814611,10,225,3,data01_direction4priors,12,8,35
180,517.04034,165,225,0.06,-1.918529813,-1.602885946,1.141535,519.478484,10,225,3,data01_direction4priors,12,8,35
181,519.705746,62,215,0.06,-1.849013517,-1.682601858,1.40438,522.406699,10,225,3,data01_direction4priors,12,8,35
182,522.630768,123,215,0.12,-1.663133272,-1.866544326,1.319407,525.246679,10,225,3,data01_direction4priors,12,8,35
183,525.475903,189,215,0.12,-1.27657151,-2.149503473,0.922154,527.694725,10,225,3,data01_direction4priors,12,8,35
184,527.921597,89,235,0.12,-1.863683813,-1.666338094,1.580462,530.798627,10,225,3,data01_direction4priors,12,8,35
185,531.026377,137,235,0.24,-1.162173164,-2.213448336,1.115857,533.438755,10,225,3,data01_direction4priors,12,8,35
186,533.661801,185,225,0.12,-1.583093304,-1.934894207,1.00038,535.958765,10,225,3,data01_direction4priors,12,8,35
187,536.187487,273,235,0.06,-1.390568426,-2.077575379,1.042736,538.526677,10,225,3,data01_direction4priors,12,8,35
188,538.75313,255,225,0.06,-1.834669477,-1.698230817,1.005127,541.054655,10,225,3,data01_direction4priors,12,8,35
189,541.278776,91,225,0.12,-1.505668542,-1.995736015,1.279544,543.854758,10,225,3,data01_direction4priors,12,8,35
190,544.083953,334,215,0.24,-2.162547602,-1.254347587,1.690217,547.070668,10,225,3,data01_direction4priors,12,8,35
191,547.298404,41,235,0.06,-1.791652844,-1.743553867,2.179714,550.774639,10,225,3,data01_direction4priors,12,8,35
192,551.002018,248,215,0.06,-1.90463652,-1.619370164,1.116118,553.414731,10,225,3,data01_direction4priors,12,8,35
193,553.637497,158,225,0.06,-1.856539553,-1.674294146,1.568702,556.502674,10,225,3,data01_direction4priors,12,8,35
194,556.73222,26,225,0.06,-1.371737378,-2.090056594,1.585851,559.6145,10,225,3,data01_direction4priors,12,8,35
195,559.836768,189,235,0.06,-1.444265571,-2.040611908,0.913186,562.046569,10,225,3,data01_direction4priors,12,8,35
196,562.272655,103,215,0.06,-1.565946668,-1.94879733,1.325581,564.894723,10,225,3,data01_direction4priors,12,8,35
197,565.117758,68,245,0.12,-1.17162983,-2.208457276,1.648371,568.062675,10,225,3,data01_direction4priors,12,8,35
198,568.292303,231,215,0.06,-1.57756961,-1.939400455,0.889822,570.47857,10,225,3,data01_direction4priors,12,8,35
199,570.708105,345,215,0.06,-1.883474708,-1.643935225,1.594019,573.598695,10,225,3,data01_direction4priors,12,8,35
200,573.822794,197,235,0.12,-1.786914888,-1.74840933,1.463285,576.582624,10,225,3,data01_direction4priors,12,8,35
201,576.807656,32,215,0.06,-1.485121965,-2.011072537,1.854246,579.95849,10,225,3,data01_direction4priors,12,8,35
202,580.18181,94,225,0.24,-1.399156322,-2.071801531,1.832361,583.310764,10,225,3,data01_direction4priors,12,8,35
203,583.536158,280,245,0.06,-1.301740285,-2.134355226,1.350011,586.18256,10,225,3,data01_direction4priors,12,8,35
204,586.411219,246,245,0.12,-1.20092837,-2.192663004,1.386906,589.09467,10,225,3,data01_direction4priors,12,8,35
205,589.316175,52,215,0.06,-1.257392946,-2.160778327,2.097968,592.71068,10,225,3,data01_direction4priors,12,8,35
206,592.939936,119,225,0.06,-1.14922525,-2.220198488,1.242232,595.478736,10,225,3,data01_direction4priors,12,8,35
207,595.705142,256,215,0.06,-1.660727961,-1.868684735,0.989021,597.990741,10,225,3,data01_direction4priors,12,8,35
208,598.220837,358,235,0.06,-2.028157879,-1.461702985,2.049345,601.566653,10,225,3,data01_direction4priors,12,8,35
209,601.794713,72,225,0.06,-1.194065829,-2.196407702,1.355433,604.446719,10,225,3,data01_direction4priors,12,8,35
210,604.669807,97,205,0.12,-1.613637131,-1.909496062,1.536309,607.502585,10,225,3,data01_direction4priors,12,8,35
211,607.724547,170,225,0.06,-1.771528513,-1.763997372,1.297339,610.318471,10,225,3,data01_direction4priors,12,8,35
212,610.5397,276,205,0.12,-2.22515286,-1.139602892,1.098371,612.934613,10,225,3,data01_direction4priors,12,8,35
213,613.155203,12,225,0.06,-1.69520243,-1.83746802,1.899041,616.350773,10,225,3,data01_direction4priors,12,8,35
214,616.579384,278,215,0.06,-1.832246398,-1.70084483,1.170777,619.046627,10,225,3,data01_direction4priors,12,8,35
215,619.274744,286,235,0.12,-1.417679389,-2.059170986,1.187523,621.758738,10,225,3,data01_direction4priors,12,8,35
216,621.979981,310,225,0.12,-1.540812347,-1.968729872,1.242106,624.51866,10,225,3,data01_direction4priors,12,8,35
217,624.745284,115,225,0.24,-2.236415202,-1.117339269,1.932952,627.974763,10,225,3,data01_direction4priors,12,8,35
218,628.199383,126,225,0.12,-1.054598631,-2.266676361,1.534816,631.030708,10,225,3,data01_direction4priors,12,8,35
219,631.254079,284,215,0.06,-1.923422764,-1.597011231,1.568138,634.118751,10,225,3,data01_direction4priors,12,8,35
220,634.348789,18,235,0.24,-1.236215163,-2.172963891,1.777445,637.422746,10,225,3,data01_direction4priors,12,8,35
221,637.653109,335,225,0.24,-1.625286079,-1.899590788,2.120958,641.070601,10,225,3,data01_direction4priors,12,8,35
1,0,129,335,0.12,1.953469667,-1.560114182,2.091784,3.394962,80,225,3,data01_direction4priors,12,8,36
2,3.620475,98,355,0.12,2.274262084,1.038138706,1.789965,6.706978,80,225,3,data01_direction4priors,12,8,36
3,6.934646,164,95,0.06,-0.6239537354,-2.420884495,2.011794,10.24295,80,225,3,data01_direction4priors,12,8,36
4,10.468594,345,255,0.12,-0.5289764517,-2.44339598,1.605803,13.370967,80,225,3,data01_direction4priors,12,8,36
5,13.593281,243,355,0.06,2.34345013,0.8707706277,1.345105,16.234864,80,225,3,data01_direction4priors,12,8,36
6,16.458354,74,315,0.06,2.130454431,-1.308114642,1.592087,19.346945,80,225,3,data01_direction4priors,12,8,36
7,19.572975,166,295,0.12,0.4541113058,-2.45841065,1.821436,22.690964,80,225,3,data01_direction4priors,12,8,36
8,22.917255,30,215,0.06,-1.468422152,-2.023298392,2.637269,26.851051,80,225,3,data01_direction4priors,12,8,36
9,27.080119,192,315,0.06,-1.33548888,-2.11340234,1.194546,29.571054,80,225,3,data01_direction4priors,12,8,36
10,29.795441,64,265,0.24,-0.8675505137,-2.344644132,1.783086,32.875064,80,225,3,data01_direction4priors,12,8,36
11,33.099745,71,205,0.06,-1.713957546,-1.819986135,1.878652,36.274961,80,225,3,data01_direction4priors,12,8,36
12,36.503901,346,225,0.12,-1.982547454,-1.522992315,1.922476,39.722907,80,225,3,data01_direction4priors,12,8,36
13,39.947974,109,175,0.06,-0.4283241744,-2.463034389,1.550521,42.795029,80,225,3,data01_direction4priors,12,8,36
14,43.022662,312,15,0.24,2.482008743,0.2993870411,1.459723,45.778937,80,225,3,data01_direction4priors,12,8,36
15,46.007554,33,285,0.06,-0.6316877137,-2.41887797,2.074831,49.378901,80,225,3,data01_direction4priors,12,8,36
16,49.601369,175,65,0.12,1.239311961,2.171199176,1.641048,52.538917,80,225,3,data01_direction4priors,12,8,36
17,52.765929,157,225,0.06,-1.599851757,-1.921060737,1.98844,56.050914,80,225,3,data01_direction4priors,12,8,36
18,56.279857,24,125,0.12,-0.8944364896,2.334519943,1.47438,59.050816,80,225,3,data01_direction4priors,12,8,36
19,59.274726,156,175,0.06,-1.703581477,1.829702203,2.015624,62.586923,80,225,3,data01_direction4priors,12,8,36
20,62.808682,11,85,0.12,0.6451391337,2.415325133,1.777753,65.883036,80,225,3,data01_direction4priors,12,8,36
21,66.112989,217,205,0.24,-2.426206294,-0.6029287021,0.969228,68.37881,80,225,3,data01_direction4priors,12,8,36
22,68.608613,233,235,0.06,-0.805306786,-2.366744807,1.089727,70.994913,80,225,3,data01_direction4priors,12,8,36
23,71.224199,227,155,0.24,-2.319900845,0.9316974138,1.306266,73.826935,80,225,3,data01_direction4priors,12,8,36
24,74.049397,182,125,0.12,-0.9816080596,2.299227178,1.225077,76.570973,80,225,3,data01_direction4priors,12,8,36
25,76.794684,197,145,0.06,-1.381130468,2.083861471,1.231672,79.322831,80,225,3,data01_direction4priors,12,8,36
26,79.549812,341,325,0.06,0.2917951983,-2.482912717,2.19664,83.043035,80,225,3,data01_direction4priors,12,8,36
27,83.273525,242,315,0.24,1.774314253,-1.761195314,0.960922,85.530994,80,225,3,data01_direction4priors,12,8,36
28,85.759281,123,145,0.12,-2.342341505,0.8737484036,0.955187,88.010969,80,225,3,data01_direction4priors,12,8,36
29,88.23485,289,175,0.12,-2.487562732,0.2490615482,1.127404,90.658925,80,225,3,data01_direction4priors,12,8,36
30,90.880445,83,325,0.24,1.67467792,-1.85619338,2.066026,94.242985,80,225,3,data01_direction4priors,12,8,36
31,94.464265,143,275,0.12,0.4506058206,-2.45905559,1.426183,97.187007,80,225,3,data01_direction4priors,12,8,36
32,97.40928,308,225,0.06,-2.017381272,-1.476540823,2.22532,100.930963,80,225,3,data01_direction4priors,12,8,36
33,101.152769,173,65,0.06,1.636353299,1.890065576,1.665665,104.115061,80,225,3,data01_direction4priors,12,8,36
34,104.337297,35,35,0.06,2.498772841,-0.07832168978,1.097096,106.73093,80,225,3,data01_direction4priors,12,8,36
35,106.952735,143,205,0.06,-2.128655411,-1.311040099,1.377752,109.626961,80,225,3,data01_direction4priors,12,8,36
36,109.847821,172,245,0.12,-0.6731431077,-2.407670733,1.354567,112.498928,80,225,3,data01_direction4priors,12,8,36
37,112.722886,9,285,0.06,-0.08579085722,-2.498527552,1.719616,115.738976,80,225,3,data01_direction4priors,12,8,36
38,115.967291,129,195,0.06,-1.763723212,-1.771801465,1.21891,118.482802,80,225,3,data01_direction4priors,12,8,36
39,118.712509,86,235,0.12,-1.004782069,-2.289194835,1.593778,121.602959,80,225,3,data01_direction4priors,12,8,36
40,121.827253,3,225,0.12,-2.490272007,0.2203300469,1.567178,124.690948,80,225,3,data01_direction4priors,12,8,36
41,124.911901,271,225,0.06,2.069611348,-1.402393978,1.65849,127.866977,80,225,3,data01_direction4priors,12,8,36
42,128.096518,94,335,0.06,-1.399156322,-2.071801531,1.874124,131.267064,80,225,3,data01_direction4priors,12,8,36
43,131.490612,304,255,0.24,-1.42968221,-2.050855621,0.991916,133.779031,80,225,3,data01_direction4priors,12,8,36
44,134.006299,220,95,0.12,-0.464114353,2.456541851,1.659976,136.962806,80,225,3,data01_direction4priors,12,8,36
45,137.19075,56,165,0.12,-2.21004493,1.168632281,1.075644,139.562903,80,225,3,data01_direction4priors,12,8,36
46,139.786375,132,255,0.12,-0.2265722082,-2.489711838,1.304146,142.387044,80,225,3,data01_direction4priors,12,8,36
47,142.611499,133,205,0.06,-1.916131934,-1.605751665,2.199029,146.107054,80,225,3,data01_direction4priors,12,8,36
48,146.335112,315,135,0.06,0.5533762907,-2.437985784,1.883238,149.514888,80,225,3,data01_direction4priors,12,8,36
49,149.739252,294,355,0.24,2.497368825,0.1146688859,1.591165,152.626952,80,225,3,data01_direction4priors,12,8,36
50,152.85391,162,255,0.06,-0.5141905079,-2.446550249,1.220513,155.370953,80,225,3,data01_direction4priors,12,8,36
51,155.599253,350,235,0.06,-1.733029123,-1.801835192,1.211263,158.106984,80,225,3,data01_direction4priors,12,8,36
52,158.334449,17,275,0.24,0.6555048215,-2.412532576,1.540151,161.171076,80,225,3,data01_direction4priors,12,8,36
53,161.399222,101,225,0.24,-1.779057226,-1.756404107,1.299298,163.995114,80,225,3,data01_direction4priors,12,8,36
54,164.224312,216,215,0.12,-1.619469178,-1.904552331,1.314203,166.83504,80,225,3,data01_direction4priors,12,8,36
55,167.059422,10,315,0.12,1.616521611,-1.907054766,1.359009,169.714935,80,225,3,data01_direction4priors,12,8,36
56,169.944511,237,155,0.06,-0.9814496143,2.299294817,1.345884,172.586973,80,225,3,data01_direction4priors,12,8,36
57,172.809661,21,175,0.12,-2.324182116,0.9209655206,1.704905,175.811066,80,225,3,data01_direction4priors,12,8,36
58,176.034049,277,205,0.12,-2.421803877,-0.6203756782,1.320274,178.650807,80,225,3,data01_direction4priors,12,8,36
59,178.879097,340,325,0.12,2.454411409,-0.4752521811,1.363308,181.539021,80,225,3,data01_direction4priors,12,8,36
60,181.764295,247,245,0.12,-0.7950131144,-2.370222384,1.182377,184.243069,80,225,3,data01_direction4priors,12,8,36
61,184.469498,124,215,0.12,-2.388033248,-0.7397953823,1.300958,187.067073,80,225,3,data01_direction4priors,12,8,36
62,187.294727,333,15,0.06,2.432192174,-0.5783089388,0.875801,189.466944,80,225,3,data01_direction4priors,12,8,36
63,189.690587,335,105,0.12,-0.3752571707,2.471675961,1.167855,192.154993,80,225,3,data01_direction4priors,12,8,36
64,192.37597,148,5,0.06,2.356145183,0.83581091,1.706478,195.378988,80,225,3,data01_direction4priors,12,8,36
65,195.600436,37,185,0.06,-1.849505717,1.68206082,1.641839,198.538803,80,225,3,data01_direction4priors,12,8,36
66,198.76491,140,315,0.12,1.429858242,-2.050732895,1.389425,201.4509,80,225,3,data01_direction4priors,12,8,36
67,201.679897,316,145,0.24,-1.893071952,1.632874332,1.75447,204.730946,80,225,3,data01_direction4priors,12,8,36
68,204.954356,23,235,0.06,-2.038127218,-1.447769817,1.712091,207.962992,80,225,3,data01_direction4priors,12,8,36
69,208.188789,101,185,0.12,-2.356044117,0.8360957581,1.093654,210.578983,80,225,3,data01_direction4priors,12,8,36
70,210.804263,125,215,0.24,-1.883021493,-1.644454334,1.702173,213.802985,80,225,3,data01_direction4priors,12,8,36
71,214.028769,79,305,0.24,1.771315235,-1.764211534,2.005753,217.330989,80,225,3,data01_direction4priors,12,8,36
72,217.552702,198,195,0.06,-2.310405072,-0.9550017816,1.433942,220.283078,80,225,3,data01_direction4priors,12,8,36
73,220.507726,317,325,0.06,2.453731334,-0.4787510198,1.206709,223.010928,80,225,3,data01_direction4priors,12,8,36
74,223.233002,154,85,0.06,-0.581649594,2.431395433,1.177512,225.707038,80,225,3,data01_direction4priors,12,8,36
75,225.928331,266,275,0.12,-0.9551218914,-2.310355421,0.890149,228.114987,80,225,3,data01_direction4priors,12,8,36
76,228.34415,193,265,0.06,-1.622182905,-1.902241474,0.82648,230.467078,80,225,3,data01_direction4priors,12,8,36
77,230.690113,94,355,0.06,2.450952833,0.4927780531,1.536406,233.523018,80,225,3,data01_direction4priors,12,8,36
78,233.744893,359,225,0.12,-1.429823534,-2.050757094,1.505653,236.547074,80,225,3,data01_direction4priors,12,8,36
79,236.769656,270,195,0.12,-2.498767438,0.07849388354,1.536766,239.602968,80,225,3,data01_direction4priors,12,8,36
80,239.824414,159,265,0.12,-0.04878318079,-2.499523995,1.370044,242.490989,80,225,3,data01_direction4priors,12,8,36
81,242.719443,331,235,0.06,2.274136558,-1.038413653,1.987068,246.00304,80,225,3,data01_direction4priors,12,8,36
82,246.23339,43,275,0.06,1.152427027,-2.218538245,1.744886,249.274822,80,225,3,data01_direction4priors,12,8,36
83,249.49771,281,135,0.12,-0.9072538517,2.329568726,3.096691,253.891015,80,225,3,data01_direction4priors,12,8,36
84,254.11983,9,255,0.12,-0.6772384789,-2.406521981,1.346576,256.763037,80,225,3,data01_direction4priors,12,8,36
85,256.984947,38,125,0.24,-1.878580037,1.649526309,1.265353,259.546809,80,225,3,data01_direction4priors,12,8,36
86,259.770065,211,215,0.06,-0.07411252476,2.498901225,1.680318,262.747,80,225,3,data01_direction4priors,12,8,36
87,262.974612,5,235,0.12,-2.185925281,-1.213149071,1.731811,266.002969,80,225,3,data01_direction4priors,12,8,36
88,266.229142,310,185,0.06,-1.540812347,-1.968729872,1.757226,269.282788,80,225,3,data01_direction4priors,12,8,36
89,269.503321,285,295,0.12,0.6417357759,-2.41623161,1.459039,272.25899,80,225,3,data01_direction4priors,12,8,36
90,272.48823,237,195,0.12,-2.49719665,0.1183591587,1.114251,274.899058,80,225,3,data01_direction4priors,12,8,36
91,275.123754,257,25,0.06,1.943755991,1.572199939,1.398565,277.818907,80,225,3,data01_direction4priors,12,8,36
92,278.048707,306,295,0.06,0.3640002012,-2.47335882,1.289845,280.634992,80,225,3,data01_direction4priors,12,8,36
93,280.86387,169,225,0.06,-0.8257256293,2.359698537,1.074532,283.234934,80,225,3,data01_direction4priors,12,8,36
94,283.459412,68,155,0.12,-1.939156308,-1.577869708,1.487138,286.243117,80,225,3,data01_direction4priors,12,8,36
95,286.46427,228,185,0.12,-2.257127876,1.074883135,0.978027,288.738802,80,225,3,data01_direction4priors,12,8,36
96,288.959887,309,135,0.06,-0.3490360759,2.475514859,1.978639,292.235129,80,225,3,data01_direction4priors,12,8,36
97,292.463949,168,295,0.06,-0.4535614498,-2.458512154,2.138487,295.89896,80,225,3,data01_direction4priors,12,8,36
98,296.127645,194,75,0.06,1.214015791,2.185444042,1.44273,298.866818,80,225,3,data01_direction4priors,12,8,36
99,299.092456,52,45,0.12,2.352373802,0.8463672344,1.301919,301.691021,80,225,3,data01_direction4priors,12,8,36
100,301.917709,161,305,0.06,1.360409436,-2.097447536,1.436785,304.651004,80,225,3,data01_direction4priors,12,8,36
101,304.872607,267,295,0.24,1.031806459,-2.277141943,1.025964,307.195097,80,225,3,data01_direction4priors,12,8,36
102,307.41835,217,205,0.06,-2.113379738,-1.335524648,1.52836,310.243032,80,225,3,data01_direction4priors,12,8,36
103,310.472983,127,135,0.12,0.1908820906,2.492702154,1.193401,312.962972,80,225,3,data01_direction4priors,12,8,36
104,313.188325,149,185,0.12,-2.474392735,0.3569041798,0.878183,315.36304,80,225,3,data01_direction4priors,12,8,36
105,315.58415,126,125,0.06,-1.904552331,1.619469178,1.362312,318.243063,80,225,3,data01_direction4priors,12,8,36
106,318.469226,272,245,0.06,-0.708391732,-2.397536476,1.749283,321.515053,80,225,3,data01_direction4priors,12,8,36
107,321.743571,56,225,0.12,-1.605190994,-1.916601647,1.978844,325.019062,80,225,3,data01_direction4priors,12,8,36
108,325.247519,254,195,0.06,-1.991200659,-1.511661317,1.347011,327.8911,80,225,3,data01_direction4priors,12,8,36
109,328.112678,280,195,0.24,-2.474435866,-0.356605027,1.377856,330.786956,80,225,3,data01_direction4priors,12,8,36
110,331.007693,73,165,0.06,-2.077767011,1.390282075,1.346824,333.651052,80,225,3,data01_direction4priors,12,8,36
111,333.872788,67,215,0.06,-1.031297131,-2.277372659,1.913689,337.083052,80,225,3,data01_direction4priors,12,8,36
112,337.306833,209,125,0.06,-2.413419755,-0.652230855,1.447511,340.050919,80,225,3,data01_direction4priors,12,8,36
113,340.271771,176,175,0.06,-1.248288695,-2.16605063,1.89874,343.46704,80,225,3,data01_direction4priors,12,8,36
114,343.695873,276,135,0.24,-1.868455831,1.660985492,1.13857,346.130981,80,225,3,data01_direction4priors,12,8,36
115,346.361294,279,165,0.24,-2.267887737,1.05199107,0.993044,348.650946,80,225,3,data01_direction4priors,12,8,36
116,348.876914,182,155,0.06,-2.073578158,-1.396521973,1.053459,351.226969,80,225,3,data01_direction4priors,12,8,36
117,351.452537,132,165,0.06,-2.16960126,1.242107231,1.421788,354.170856,80,225,3,data01_direction4priors,12,8,36
118,354.397533,105,325,0.12,2.248076608,-1.093687142,1.461017,357.155036,80,225,3,data01_direction4priors,12,8,36
119,357.38239,257,335,0.24,2.339840531,-0.880423926,1.468037,360.146932,80,225,3,data01_direction4priors,12,8,36
120,360.37721,317,315,0.06,0.2084749878,2.491292472,2.681112,364.354968,80,225,3,data01_direction4priors,12,8,36
121,364.579938,232,245,0.24,-0.6557964881,-2.412453309,1.094477,366.97108,80,225,3,data01_direction4priors,12,8,36
122,367.195487,340,195,0.06,-1.895370472,-1.630205746,1.670975,370.163015,80,225,3,data01_direction4priors,12,8,36
123,370.390012,166,345,0.12,1.025466224,-2.280004172,1.52447,373.21101,80,225,3,data01_direction4priors,12,8,36
124,373.434753,242,285,0.12,1.774314253,-1.761195314,0.983735,375.715079,80,225,3,data01_direction4priors,12,8,36
125,375.940452,110,275,0.06,-0.3852730614,-2.470134545,1.733842,378.97083,80,225,3,data01_direction4priors,12,8,36
126,379.194787,20,305,0.06,0.9681622168,-2.30492124,2.007546,382.498953,80,225,3,data01_direction4priors,12,8,36
127,382.728823,16,165,0.06,-1.914283921,-1.607954312,2.89772,386.923052,80,225,3,data01_direction4priors,12,8,36
128,387.151224,60,285,0.12,1.602489286,-1.918861143,1.587083,390.034863,80,225,3,data01_direction4priors,12,8,36
129,390.255818,287,255,0.06,-2.412532576,-0.6555048215,1.370676,392.923062,80,225,3,data01_direction4priors,12,8,36
130,393.150893,228,245,0.06,-0.237733557,-2.488670881,1.115795,395.563148,80,225,3,data01_direction4priors,12,8,36
131,395.786353,316,215,0.12,-1.491680038,-2.006213016,1.144077,398.226933,80,225,3,data01_direction4priors,12,8,36
132,398.451764,145,205,0.12,-2.443468861,0.528639691,1.166868,400.915063,80,225,3,data01_direction4priors,12,8,36
133,401.137145,75,285,0.24,1.488160132,-2.008825384,2.449363,404.883105,80,225,3,data01_direction4priors,12,8,36
134,405.110311,303,185,0.06,-1.465256829,-2.02559187,1.26019,407.66708,80,225,3,data01_direction4priors,12,8,36
135,407.895547,320,185,0.24,-2.450791251,0.4935810388,1.187101,410.379078,80,225,3,data01_direction4priors,12,8,36
136,410.600769,29,115,0.06,-2.121257657,1.322976173,2.145721,414.043095,80,225,3,data01_direction4priors,12,8,36
137,414.264586,227,105,0.24,0.2274300424,2.489633623,2.001896,417.563014,80,225,3,data01_direction4priors,12,8,36
138,417.788521,25,295,0.06,1.338390886,-2.111565731,1.558118,420.643084,80,225,3,data01_direction4priors,12,8,36
139,420.873174,71,245,0.06,-0.4854077755,-2.452423147,1.801316,423.971087,80,225,3,data01_direction4priors,12,8,36
140,424.197549,273,235,0.12,-0.4717523763,-2.455086495,1.845107,427.339103,80,225,3,data01_direction4priors,12,8,36
141,427.56171,222,165,0.06,-2.472240362,0.3715206477,1.840841,430.699105,80,225,3,data01_direction4priors,12,8,36
142,430.925921,303,235,0.24,-1.622445061,-1.902017882,1.380527,433.603013,80,225,3,data01_direction4priors,12,8,36
143,433.831012,73,155,0.12,0.785235295,-2.373479625,2.6755,437.802988,80,225,3,data01_direction4priors,12,8,36
144,438.023772,180,285,0.06,2.457894491,-0.4568967812,2.386896,441.70708,80,225,3,data01_direction4priors,12,8,36
145,441.937027,100,35,0.12,1.625155172,1.899702784,2.36143,445.594991,80,225,3,data01_direction4priors,12,8,36
146,445.820408,93,205,0.06,-2.428722091,-0.5927132563,1.806106,448.923029,80,225,3,data01_direction4priors,12,8,36
147,449.144562,262,265,0.12,-0.1544650054,-2.49522355,1.441914,451.883023,80,225,3,data01_direction4priors,12,8,36
148,452.109532,100,275,0.06,-1.665792765,-1.864171254,1.893076,455.299082,80,225,3,data01_direction4priors,12,8,36
149,455.52372,110,305,0.06,2.467130708,-0.4040619634,1.878777,458.698991,80,225,3,data01_direction4priors,12,8,36
150,458.927744,163,185,0.06,1.26447751,-2.156640125,2.906642,463.13102,80,225,3,data01_direction4priors,12,8,36
151,463.360195,30,345,0.06,2.401669181,0.6942514995,1.242377,465.899105,80,225,3,data01_direction4priors,12,8,36
152,466.125463,101,245,0.06,-1.779057226,-1.756404107,1.452962,468.874966,80,225,3,data01_direction4priors,12,8,36
153,469.100284,14,75,0.24,0.9008894561,2.332037347,1.750216,472.14709,80,225,3,data01_direction4priors,12,8,36
154,472.374699,315,175,0.24,-2.255444483,1.078410953,1.547797,475.219043,80,225,3,data01_direction4priors,12,8,36
155,475.449402,148,215,0.06,0.6632119458,-2.410425256,2.281134,479.027106,80,225,3,data01_direction4priors,12,8,36
156,479.252805,201,175,0.12,-1.937122553,-1.580365848,1.405659,481.955081,80,225,3,data01_direction4priors,12,8,36
157,482.177892,276,255,0.06,-0.1436191015,-2.495871302,1.056573,484.530963,80,225,3,data01_direction4priors,12,8,36
158,484.753404,226,235,0.24,-0.3244420974,-2.478858069,1.616971,487.666944,80,225,3,data01_direction4priors,12,8,36
159,487.888038,296,245,0.12,-0.8535175031,-2.349788899,1.186483,490.370963,80,225,3,data01_direction4priors,12,8,36
160,490.59346,236,5,0.06,1.580499334,-1.937013643,1.001076,492.890998,80,225,3,data01_direction4priors,12,8,36
161,493.119015,338,55,0.06,2.315894595,-0.9416115037,1.475482,495.891022,80,225,3,data01_direction4priors,12,8,36
162,496.113917,11,225,0.24,-1.792373595,-1.742812926,1.416541,498.826997,80,225,3,data01_direction4priors,12,8,36
163,499.048858,247,265,0.12,-1.162478217,-2.213288141,1.065775,501.411096,80,225,3,data01_direction4priors,12,8,36
164,501.634422,161,105,0.06,1.417821286,2.059073287,1.304129,504.235083,80,225,3,data01_direction4priors,12,8,36
165,504.45956,235,5,0.24,2.486528335,-0.2591849558,1.350983,507.107082,80,225,3,data01_direction4priors,12,8,36
166,507.334618,282,145,0.06,2.491278099,-0.2086466658,1.363718,509.994874,80,225,3,data01_direction4priors,12,8,36
167,510.21964,264,75,0.12,0.7113137869,2.39667117,1.422834,512.939057,80,225,3,data01_direction4priors,12,8,36
168,513.164668,183,245,0.24,-0.5957996358,-2.427966802,0.974011,515.435092,80,225,3,data01_direction4priors,12,8,36
169,515.660301,262,145,0.06,-0.4961030919,2.450281968,1.526215,518.483112,80,225,3,data01_direction4priors,12,8,36
170,518.705101,47,165,0.12,-2.113494366,1.335343239,1.521521,521.523028,80,225,3,data01_direction4priors,12,8,36
171,521.749845,92,45,0.06,0.3173724335,2.479773122,1.020699,524.06703,80,225,3,data01_direction4priors,12,8,36
172,524.295479,350,285,0.12,0.6766158379,-2.406697116,1.699033,527.291028,80,225,3,data01_direction4priors,12,8,36
173,527.519947,231,285,0.06,1.566382495,-1.948447043,1.114413,529.93088,80,225,3,data01_direction4priors,12,8,36
174,530.155274,92,115,0.06,-1.396521973,2.073578158,0.927229,532.379155,80,225,3,data01_direction4priors,12,8,36
175,532.601228,264,205,0.24,-1.969022298,-1.540438635,0.905289,534.803034,80,225,3,data01_direction4priors,12,8,36
176,535.027017,318,105,0.06,-0.8194820028,2.361874096,1.255572,537.579042,80,225,3,data01_direction4priors,12,8,36
177,537.802256,264,345,0.24,2.4296964,-0.5887065504,1.040056,540.138856,80,225,3,data01_direction4priors,12,8,36
178,540.367752,336,225,0.06,-0.5218385924,-2.444930364,1.186596,542.851034,80,225,3,data01_direction4priors,12,8,36
179,543.073107,229,175,0.24,-2.411424989,0.6595676781,1.289173,545.658905,80,225,3,data01_direction4priors,12,8,36
180,545.888377,17,245,0.06,-0.5326278553,-2.442602622,2.521929,549.706845,80,225,3,data01_direction4priors,12,8,36
181,549.931322,349,305,0.12,1.011659303,-2.286163917,1.255096,552.48298,80,225,3,data01_direction4priors,12,8,36
182,552.706633,129,195,0.12,-2.435479989,-0.5643024196,1.359897,555.363066,80,225,3,data01_direction4priors,12,8,36
183,555.59168,292,155,0.06,-0.6384158952,-2.417110909,2.482638,559.370845,80,225,3,data01_direction4priors,12,8,36
184,559.594717,281,145,0.12,-1.880475886,1.647364696,1.287776,562.179106,80,225,3,data01_direction4priors,12,8,36
185,562.399989,121,55,0.12,1.829819595,1.703455385,1.482543,565.17912,80,225,3,data01_direction4priors,12,8,36
186,565.404841,262,345,0.06,2.407670733,-0.6731431077,1.085729,567.787127,80,225,3,data01_direction4priors,12,8,36
187,568.010329,71,135,0.06,-0.5606616264,2.436320697,0.975982,570.282852,80,225,3,data01_direction4priors,12,8,36
188,570.506057,193,185,0.24,-2.199557989,1.188252773,1.152413,572.955031,80,225,3,data01_direction4priors,12,8,36
189,573.181436,262,255,0.24,-1.456299576,-2.032041226,0.96512,575.443102,80,225,3,data01_direction4priors,12,8,36
190,575.667164,326,305,0.12,0.822360503,-2.360873398,1.223275,578.18703,80,225,3,data01_direction4priors,12,8,36
191,578.41247,54,215,0.06,-2.338582908,0.8837590061,1.646255,581.355097,80,225,3,data01_direction4priors,12,8,36
192,581.577034,304,265,0.06,-0.9012108555,-2.331913162,1.26544,584.139001,80,225,3,data01_direction4priors,12,8,36
193,584.362257,306,255,0.06,0.5604937348,-2.436359328,1.840285,587.499055,80,225,3,data01_direction4priors,12,8,36
194,587.726573,217,235,0.06,2.412622896,0.6551723132,2.292017,591.315007,80,225,3,data01_direction4priors,12,8,36
195,591.5399,113,335,0.06,2.34845151,-0.8571904725,2.102615,594.939059,80,225,3,data01_direction4priors,12,8,36
196,595.163673,248,275,0.06,1.357128309,-2.09957204,1.118906,597.5791,80,225,3,data01_direction4priors,12,8,36
197,597.809127,23,235,0.12,-0.8571904725,-2.34845151,1.777295,600.882947,80,225,3,data01_direction4priors,12,8,36
198,601.103448,168,95,0.24,0.9754848608,2.301831724,1.946978,604.346975,80,225,3,data01_direction4priors,12,8,36
199,604.56754,171,195,0.24,-2.372520665,-0.7881279677,2.187051,608.051101,80,225,3,data01_direction4priors,12,8,36
200,608.281055,79,215,0.24,-1.602456811,-1.918888264,1.425435,611.00299,80,225,3,data01_direction4priors,12,8,36
201,611.22607,133,205,0.12,-1.479520325,-2.015197164,1.008532,613.531109,80,225,3,data01_direction4priors,12,8,36
202,613.751709,229,235,0.06,-1.323268518,-2.1210753,1.738913,616.787095,80,225,3,data01_direction4priors,12,8,36
203,617.016098,181,165,0.12,-2.437127002,0.5571462805,1.138111,619.450767,80,225,3,data01_direction4priors,12,8,36
204,619.671476,7,85,0.06,0.6205015797,2.421771622,1.267034,622.23511,80,225,3,data01_direction4priors,12,8,36
205,622.456746,123,265,0.06,0.7536902105,2.383684347,2.945706,626.698992,80,225,3,data01_direction4priors,12,8,36
206,626.929032,286,245,0.12,-0.3065921398,-2.481129029,0.993492,629.219061,80,225,3,data01_direction4priors,12,8,36
207,629.44475,308,95,0.06,0.7877608173,2.372642597,1.757835,632.499089,80,225,3,data01_direction4priors,12,8,36
208,632.729098,250,15,0.12,2.468883939,0.3932074466,1.521506,635.547141,80,225,3,data01_direction4priors,12,8,36
209,635.773881,197,265,0.06,-0.1905385375,-2.492728438,1.97266,639.04306,80,225,3,data01_direction4priors,12,8,36
210,639.267868,147,25,0.12,1.873840847,1.654907997,1.918625,642.48302,80,225,3,data01_direction4priors,12,8,36
211,642.711978,337,175,0.06,-2.417276,-0.6377905159,1.602559,645.611043,80,225,3,data01_direction4priors,12,8,36
212,645.836578,267,115,0.12,0.1901949809,2.492754675,1.958008,649.091134,80,225,3,data01_direction4priors,12,8,36
213,649.320622,202,225,0.06,-1.627731223,-1.897495999,1.737853,652.354965,80,225,3,data01_direction4priors,12,8,36
214,652.584968,227,215,0.06,-1.977880591,-1.529048191,1.47363,655.355093,80,225,3,data01_direction4priors,12,8,36
215,655.579828,288,85,0.24,0.8563812462,2.348746721,1.886588,658.763063,80,225,3,data01_direction4priors,12,8,36
216,658.983935,14,205,0.12,-1.546690537,-1.964115166,1.818599,662.099003,80,225,3,data01_direction4priors,12,8,36
217,662.328264,102,215,0.12,-2.426216498,0.60288764,1.554396,665.179101,80,225,3,data01_direction4priors,12,8,36
218,665.402946,181,265,0.06,-1.563301067,-1.950920237,2.503553,669.20304,80,225,3,data01_direction4priors,12,8,36
219,669.426026,213,265,0.24,-0.2919242771,-2.482897544,1.072573,671.795096,80,225,3,data01_direction4priors,12,8,36
220,672.021613,176,5,0.12,2.025365102,1.465570266,1.581005,674.899124,80,225,3,data01_direction4priors,12,8,36
221,675.126234,290,195,0.06,-2.491530587,0.2056096591,2.116319,678.539085,80,225,3,data01_direction4priors,12,8,36
222,678.760001,313,115,0.24,-1.263585699,2.157162762,2.050652,682.107069,80,225,3,data01_direction4priors,12,8,36
223,682.333856,31,275,0.24,0.4712863682,-2.455175994,1.964679,685.595058,80,225,3,data01_direction4priors,12,8,36
224,685.817879,215,185,0.06,-1.497256633,-2.002054588,1.304789,688.419171,80,225,3,data01_direction4priors,12,8,36
225,688.642967,235,275,0.12,-0.1325984491,-2.496481054,2.391576,692.330949,80,225,3,data01_direction4priors,12,8,36
226,692.556378,69,255,0.06,-2.033990686,-1.453575553,2.374062,696.226897,80,225,3,data01_direction4priors,12,8,36
1,0,304,265,0.12,-1.084682645,-2.252435029,1.142054,2.45117,40,225,3,data01_direction4priors,12,8,37
2,2.677956,225,205,0.12,-1.771650068,-1.76387529,1.908595,5.883147,40,225,3,data01_direction4priors,12,8,37
3,6.112138,65,195,0.06,-2.019078081,-1.474219693,1.562682,8.971288,40,225,3,data01_direction4priors,12,8,37
4,9.196811,141,225,0.24,-1.520267372,-1.98463778,1.501847,11.995213,40,225,3,data01_direction4priors,12,8,37
5,12.221608,186,275,0.12,0.5253652326,-2.444174988,1.348916,14.866978,40,225,3,data01_direction4priors,12,8,37
6,15.096695,173,215,0.06,-1.819602748,-1.714364558,1.537877,17.931128,40,225,3,data01_direction4priors,12,8,37
7,18.161395,233,265,0.06,0.574881885,-2.433004484,1.87309,21.331026,40,225,3,data01_direction4priors,12,8,37
8,21.555579,99,265,0.06,-1.839271092,-1.693245951,1.726985,24.578991,40,225,3,data01_direction4priors,12,8,37
9,24.800005,101,225,0.12,-0.9546442415,-2.310552828,1.4265,27.523038,40,225,3,data01_direction4priors,12,8,37
10,27.744917,264,235,0.12,-1.035170298,-2.275614742,0.865686,29.90714,40,225,3,data01_direction4priors,12,8,37
11,30.130843,113,185,0.24,-2.478392983,0.3279759437,1.271546,32.698907,40,225,3,data01_direction4priors,12,8,37
12,32.925949,320,235,0.12,-1.512039239,-1.990913695,1.32465,35.547175,40,225,3,data01_direction4priors,12,8,37
13,35.77114,174,165,0.12,-1.644162922,-1.883275945,2.079395,39.147079,40,225,3,data01_direction4priors,12,8,37
14,39.374923,20,245,0.06,-1.582693261,-1.935221445,2.043416,42.714909,40,225,3,data01_direction4priors,12,8,37
15,42.938737,248,255,0.06,-0.1653079918,-2.494528666,1.887863,46.123181,40,225,3,data01_direction4priors,12,8,37
16,46.352942,224,255,0.24,-0.2123699936,-2.490963465,1.45768,49.107165,40,225,3,data01_direction4priors,12,8,37
17,49.327821,125,245,0.24,-1.43815917,-2.044920097,1.946795,52.571166,40,225,3,data01_direction4priors,12,8,37
18,52.791795,64,165,0.24,-2.411561293,0.65906914,1.346749,55.435118,40,225,3,data01_direction4priors,12,8,37
19,55.656907,68,215,0.06,-0.9913944264,-2.295024421,2.497671,59.451223,40,225,3,data01_direction4priors,12,8,37
20,59.680066,126,285,0.24,1.075076873,-2.257035604,1.674452,62.651023,40,225,3,data01_direction4priors,12,8,37
21,62.87444,357,245,0.24,-1.335925764,-2.113126204,1.840009,66.01108,40,225,3,data01_direction4priors,12,8,37
22,66.238752,59,275,0.06,-0.0121093598,-2.499970673,2.035824,69.571179,40,225,3,data01_direction4priors,12,8,37
23,69.792643,23,245,0.12,-0.8571904725,-2.34845151,1.889702,72.978908,40,225,3,data01_direction4priors,12,8,37
24,73.206704,143,155,0.06,-1.756006161,-1.779450017,1.707865,76.211187,40,225,3,data01_direction4priors,12,8,37
25,76.441218,308,255,0.12,-0.543070412,-2.440302139,1.433223,79.170985,40,225,3,data01_direction4priors,12,8,37
26,79.396156,322,195,0.06,-1.748625352,-1.786703495,1.462304,82.155086,40,225,3,data01_direction4priors,12,8,37
27,82.381051,41,275,0.06,-1.925258186,-1.594798081,2.029659,85.707125,40,225,3,data01_direction4priors,12,8,37
28,85.934901,129,155,0.12,-2.290487001,1.00183297,0.859528,88.090974,40,225,3,data01_direction4priors,12,8,37
29,88.320806,85,195,0.12,-2.459726336,-0.4469299174,1.481747,91.099087,40,225,3,data01_direction4priors,12,8,37
30,91.325615,325,245,0.06,-0.5997624041,-2.426990947,1.324904,93.947089,40,225,3,data01_direction4priors,12,8,37
31,94.170739,161,235,0.12,-1.120180807,-2.23499328,1.079804,96.547092,40,225,3,data01_direction4priors,12,8,37
32,96.776264,11,235,0.12,-1.491818285,-2.006110217,1.674413,99.747156,40,225,3,data01_direction4priors,12,8,37
33,99.970779,296,215,0.12,-1.701192578,-1.831923528,1.087677,102.355054,40,225,3,data01_direction4priors,12,8,37
34,102.57631,195,255,0.12,0.7120149505,-2.396462958,1.506344,105.379184,40,225,3,data01_direction4priors,12,8,37
35,105.601103,349,225,0.06,-1.617014953,-1.906636474,1.777664,108.675208,40,225,3,data01_direction4priors,12,8,37
36,108.905452,96,205,0.12,-2.444174988,-0.5253652326,1.433182,111.635088,40,225,3,data01_direction4priors,12,8,37
37,111.860365,288,195,0.06,-0.9920270022,-2.29475106,1.566365,114.723154,40,225,3,data01_direction4priors,12,8,37
38,114.945113,2,235,0.24,-1.485953353,-2.010458314,1.937413,118.178989,40,225,3,data01_direction4priors,12,8,37
39,118.409103,103,235,0.06,-2.3837882,0.7533616773,1.457533,121.16312,40,225,3,data01_direction4priors,12,8,37
40,121.384009,23,145,0.06,-2.354907521,0.8392917072,1.3625,124.043038,40,225,3,data01_direction4priors,12,8,37
41,124.26903,16,215,0.06,-2.317428654,0.9378296404,1.26947,126.834993,40,225,3,data01_direction4priors,12,8,37
42,127.064159,36,185,0.06,-1.505531009,-1.995839768,1.706151,130.066922,40,225,3,data01_direction4priors,12,8,37
43,130.288612,85,205,0.06,-2.143935089,1.285901371,1.03391,132.619111,40,225,3,data01_direction4priors,12,8,37
44,132.844267,151,175,0.12,-2.444211186,-0.5251967998,0.838285,134.979045,40,225,3,data01_direction4priors,12,8,37
45,135.200237,295,225,0.12,-0.7049727784,-2.398544013,1.098256,137.595019,40,225,3,data01_direction4priors,12,8,37
46,137.815723,162,225,0.06,-1.735224261,-1.799721302,1.794897,140.9071,40,225,3,data01_direction4priors,12,8,37
47,141.130003,290,205,0.12,-1.597376287,-1.923119601,1.392395,143.818913,40,225,3,data01_direction4priors,12,8,37
48,144.045066,227,185,0.12,-2.196222898,-1.194405703,1.741422,147.082998,40,225,3,data01_direction4priors,12,8,37
49,147.309429,226,245,0.06,-1.432463528,-2.048913917,2.005183,150.611104,40,225,3,data01_direction4priors,12,8,37
50,150.833352,59,225,0.12,-2.498551105,0.08510214581,1.417216,153.546948,40,225,3,data01_direction4priors,12,8,37
51,153.768237,306,265,0.12,-0.4325140941,-2.462302085,1.938197,157.003048,40,225,3,data01_direction4priors,12,8,37
52,157.232392,95,215,0.06,-1.952905587,-1.560820223,1.73822,160.267126,40,225,3,data01_direction4priors,12,8,37
53,160.496727,164,225,0.12,-1.517436275,-1.98680325,1.305674,163.098922,40,225,3,data01_direction4priors,12,8,37
54,163.321824,331,285,0.06,-2.225231386,-1.139449551,1.896589,166.515018,40,225,3,data01_direction4priors,12,8,37
55,166.736026,194,215,0.12,-2.002029248,-1.497290516,0.946436,168.979005,40,225,3,data01_direction4priors,12,8,37
56,169.201817,330,195,0.06,-1.482946785,-2.012677032,1.384733,171.883082,40,225,3,data01_direction4priors,12,8,37
57,172.10679,269,245,0.12,-2.075759156,-1.393278123,1.359806,174.763038,40,225,3,data01_direction4priors,12,8,37
58,174.991859,210,235,0.06,-2.167807074,-1.245235918,0.906721,177.195131,40,225,3,data01_direction4priors,12,8,37
59,177.417679,110,285,0.12,-1.638525947,-1.888182385,2.224862,180.939093,40,225,3,data01_direction4priors,12,8,37
60,181.161218,150,205,0.06,-2.40660384,-0.6769475292,0.937192,183.394951,40,225,3,data01_direction4priors,12,8,37
61,183.616927,232,185,0.06,-1.381382393,-2.083694479,1.913613,186.827156,40,225,3,data01_direction4priors,12,8,37
62,187.051103,334,215,0.06,0.581649594,-2.431395433,1.15949,189.50716,40,225,3,data01_direction4priors,12,8,37
63,189.736491,269,245,0.06,-1.197801009,-2.194372972,1.346145,192.379177,40,225,3,data01_direction4priors,12,8,37
64,192.601564,78,245,0.12,-1.916021275,-1.605883705,1.361139,195.259138,40,225,3,data01_direction4priors,12,8,37
65,195.486613,5,275,0.06,-2.351281811,-0.849396166,1.539963,198.323105,40,225,3,data01_direction4priors,12,8,37
66,198.551325,139,215,0.12,-1.588604126,-1.930372226,0.971332,200.819147,40,225,3,data01_direction4priors,12,8,37
67,201.047014,40,235,0.06,-1.821809177,-1.712019662,1.363275,203.706928,40,225,3,data01_direction4priors,12,8,37
68,203.932019,186,195,0.06,-2.414347205,-0.6487893132,1.038353,206.266967,40,225,3,data01_direction4priors,12,8,37
69,206.487663,56,255,0.12,-2.470569534,-0.382473762,1.65086,209.435123,40,225,3,data01_direction4priors,12,8,37
70,209.662164,224,215,0.06,-0.9851629296,-2.297706248,1.180162,212.139107,40,225,3,data01_direction4priors,12,8,37
71,212.367605,67,205,0.06,-0.846003201,-2.352504747,1.555151,215.219173,40,225,3,data01_direction4priors,12,8,37
72,215.442201,65,215,0.06,-2.311633107,-0.9520254078,1.496305,218.235178,40,225,3,data01_direction4priors,12,8,37
73,218.457132,277,195,0.24,-2.489708003,-0.226614345,1.729438,221.483098,40,225,3,data01_direction4priors,12,8,37
74,221.71152,328,195,0.12,-2.281815965,-1.021428362,1.690985,224.699061,40,225,3,data01_direction4priors,12,8,37
75,224.925971,56,295,0.06,-2.126602932,-1.314366756,1.404586,227.627104,40,225,3,data01_direction4priors,12,8,37
76,227.851024,174,195,0.24,-2.153113315,-1.270473554,0.895774,230.043196,40,225,3,data01_direction4priors,12,8,37
77,230.266812,303,185,0.12,-2.384950518,-0.749673948,1.607492,233.170898,40,225,3,data01_direction4priors,12,8,37
78,233.391366,272,225,0.12,-1.081314857,-2.254053722,0.76316,235.451108,40,225,3,data01_direction4priors,12,8,37
79,235.677559,324,295,0.12,0.9279483121,-2.321403009,1.093056,238.067103,40,225,3,data01_direction4priors,12,8,37
80,238.293048,326,245,0.06,-1.766735154,-1.76879815,1.173666,240.763195,40,225,3,data01_direction4priors,12,8,37
81,240.98843,219,305,0.12,0.7571282528,-2.382594554,1.182064,243.466933,40,225,3,data01_direction4priors,12,8,37
82,243.693666,1,205,0.06,-2.404805088,-0.6833099517,1.540904,246.53118,40,225,3,data01_direction4priors,12,8,37
83,246.758479,155,215,0.12,-1.175081432,-2.206622675,1.156197,249.21121,40,225,3,data01_direction4priors,12,8,37
84,249.433861,208,195,0.06,-2.378144803,0.7709911133,1.440698,252.171125,40,225,3,data01_direction4priors,12,8,37
85,252.398735,36,265,0.24,0.6834756686,-2.404757994,1.507728,255.20294,40,225,3,data01_direction4priors,12,8,37
86,255.423588,209,235,0.06,-1.698326194,-1.834581189,2.323001,259.043174,40,225,3,data01_direction4priors,12,8,37
87,259.266972,131,215,0.24,-1.548948407,-1.962335046,1.943534,262.507055,40,225,3,data01_direction4priors,12,8,37
88,262.731009,161,135,0.06,-1.295206943,-2.138326208,1.807518,265.834981,40,225,3,data01_direction4priors,12,8,37
89,266.065287,84,175,0.12,-2.468971821,0.3926552496,1.26543,268.627256,40,225,3,data01_direction4priors,12,8,37
90,268.850504,20,225,0.06,-1.797455599,-1.737571112,1.360162,271.507203,40,225,3,data01_direction4priors,12,8,37
91,271.735553,195,265,0.12,0.5182251137,-2.445698823,1.546886,274.578968,40,225,3,data01_direction4priors,12,8,37
92,274.800244,328,215,0.24,-1.844673325,-1.687358979,1.130271,277.227066,40,225,3,data01_direction4priors,12,8,37
93,277.455677,184,315,0.06,1.679836371,-1.851526334,1.250953,280.00311,40,225,3,data01_direction4priors,12,8,37
94,280.231042,254,225,0.06,0.8772880026,-2.341018103,1.571696,283.09917,40,225,3,data01_direction4priors,12,8,37
95,283.325547,115,175,0.12,-2.488329409,0.2412814819,0.989177,285.611179,40,225,3,data01_direction4priors,12,8,37
96,285.84133,164,195,0.06,-1.353808294,-2.101714325,1.017333,288.15518,40,225,3,data01_direction4priors,12,8,37
97,288.376938,115,205,0.06,-2.461089065,0.439363876,1.169623,290.843116,40,225,3,data01_direction4priors,12,8,37
98,291.07231,26,295,0.24,1.203788398,-2.191094131,1.562101,293.930941,40,225,3,data01_direction4priors,12,8,37
99,294.156885,30,185,0.06,-2.030340332,-1.458669989,1.877568,297.331102,40,225,3,data01_direction4priors,12,8,37
100,297.561147,136,255,0.06,0.3465300339,-2.475866906,1.689435,300.547118,40,225,3,data01_direction4priors,12,8,37
101,300.775641,261,225,0.12,-1.925697712,-1.594267331,0.770961,302.843148,40,225,3,data01_direction4priors,12,8,37
102,303.07169,324,225,0.12,-1.827389072,-1.706062478,1.08285,305.451072,40,225,3,data01_direction4priors,12,8,37
103,305.677233,62,215,0.06,-1.22585884,-2.178823101,1.5093,308.483054,40,225,3,data01_direction4priors,12,8,37
104,308.712007,113,235,0.06,-0.4533920292,-2.458543404,1.418541,311.427069,40,225,3,data01_direction4priors,12,8,37
105,311.656921,294,175,0.06,-1.90001122,-1.62479456,1.073478,314.026942,40,225,3,data01_direction4priors,12,8,37
106,314.252394,151,275,0.12,0.4004158075,-2.467725102,1.494175,317.043119,40,225,3,data01_direction4priors,12,8,37
107,317.267298,131,255,0.12,-0.0705074032,-2.499005543,1.96737,320.53119,40,225,3,data01_direction4priors,12,8,37
108,320.761298,101,265,0.06,-1.136238131,-2.226872899,1.649124,323.706936,40,225,3,data01_direction4priors,12,8,37
109,323.935721,261,185,0.06,-1.647105508,-1.880702912,1.914942,327.147194,40,225,3,data01_direction4priors,12,8,37
110,327.369876,180,245,0.12,-1.597111222,-1.923339737,1.200677,329.867168,40,225,3,data01_direction4priors,12,8,37
111,330.095251,176,225,0.24,-1.417395575,-2.059366355,1.307459,332.69924,40,225,3,data01_direction4priors,12,8,37
112,332.920367,35,255,0.06,-0.3501882799,-2.47535213,1.338239,335.555045,40,225,3,data01_direction4priors,12,8,37
113,335.785403,306,245,0.12,-1.520677632,-1.984323446,2.225211,339.307177,40,225,3,data01_direction4priors,12,8,37
114,339.529017,306,255,0.06,1.12355786,-2.233297502,1.33752,342.163111,40,225,3,data01_direction4priors,12,8,37
115,342.384122,155,225,0.06,-1.511627617,-1.991226242,1.378491,345.059043,40,225,3,data01_direction4priors,12,8,37
116,345.289118,7,295,0.06,-0.3716910124,-2.472214754,1.569528,348.155216,40,225,3,data01_direction4priors,12,8,37
117,348.383777,243,225,0.12,-1.781922118,-1.753497524,1.026773,350.707123,40,225,3,data01_direction4priors,12,8,37
118,350.929427,309,235,0.24,-1.991304825,-1.511524097,1.584927,353.810937,40,225,3,data01_direction4priors,12,8,37
119,354.034007,118,205,0.12,-1.950678298,-1.563602948,1.184555,356.515122,40,225,3,data01_direction4priors,12,8,37
120,356.739434,112,205,0.24,-1.721976066,-1.812401288,1.263165,359.299138,40,225,3,data01_direction4priors,12,8,37
121,359.52465,39,155,0.06,-1.979743021,-1.526636031,2.134178,362.95521,40,225,3,data01_direction4priors,12,8,37
122,363.178358,76,165,0.06,-2.324118646,0.9211256811,1.048095,365.523002,40,225,3,data01_direction4priors,12,8,37
123,365.743923,229,255,0.06,-0.9684408711,-2.304804174,1.138532,368.179047,40,225,3,data01_direction4priors,12,8,37
124,368.409368,344,235,0.06,-0.3752153391,-2.471682312,1.505232,371.211156,40,225,3,data01_direction4priors,12,8,37
125,371.434183,7,225,0.06,-1.774527166,-1.760980789,2.120414,374.851122,40,225,3,data01_direction4priors,12,8,37
126,375.077931,97,255,0.06,-1.761073039,-1.774435615,1.524634,377.899122,40,225,3,data01_direction4priors,12,8,37
127,378.122702,40,215,0.12,-1.746199515,-1.789074413,1.855892,381.27511,40,225,3,data01_direction4priors,12,8,37
128,381.496897,270,265,0.06,-0.5995951554,-2.427032272,1.473562,384.266979,40,225,3,data01_direction4priors,12,8,37
129,384.491763,46,145,0.12,-2.356101728,0.8359333978,1.718903,387.507177,40,225,3,data01_direction4priors,12,8,37
130,387.736165,140,215,0.06,0.9014110137,-2.331835797,1.594533,390.627225,40,225,3,data01_direction4priors,12,8,37
131,390.85083,220,215,0.24,-1.918640265,-1.602753734,0.911738,393.059093,40,225,3,data01_direction4priors,12,8,37
132,393.286673,276,225,0.06,-0.3426165567,-2.476411496,0.924015,395.507156,40,225,3,data01_direction4priors,12,8,37
133,395.73233,191,225,0.06,-2.444966319,0.5216701076,1.34213,398.370959,40,225,3,data01_direction4priors,12,8,37
134,398.597433,20,235,0.12,-0.7919598343,-2.371244319,2.205049,402.098995,40,225,3,data01_direction4priors,12,8,37
135,402.320967,61,255,0.12,-0.1247910638,-2.496883496,1.945397,405.562925,40,225,3,data01_direction4priors,12,8,37
136,405.785134,153,175,0.24,-2.225015067,1.139871901,1.113351,408.194923,40,225,3,data01_direction4priors,12,8,37
137,408.420518,56,255,0.24,-0.6282384109,-2.419776126,1.877945,411.594989,40,225,3,data01_direction4priors,12,8,37
138,411.824702,211,245,0.12,-1.310857379,-2.128767937,1.369831,414.490959,40,225,3,data01_direction4priors,12,8,37
139,414.719715,205,245,0.06,0.3571165699,-2.474362091,1.186723,417.202953,40,225,3,data01_direction4priors,12,8,37
140,417.42505,359,245,0.24,-1.261364913,-2.158462081,1.257404,419.978968,40,225,3,data01_direction4priors,12,8,37
141,420.200287,46,235,0.12,-1.310417262,-2.129038891,1.578128,423.074937,40,225,3,data01_direction4priors,12,8,37
142,423.304978,70,235,0.24,-0.7217231976,-2.393557107,1.489492,426.090961,40,225,3,data01_direction4priors,12,8,37
143,426.319774,160,275,0.12,0.3932074466,-2.468883939,1.474675,429.090963,40,225,3,data01_direction4priors,12,8,37
144,429.314629,297,245,0.06,-1.178682092,-2.204701459,1.135809,431.746962,40,225,3,data01_direction4priors,12,8,37
145,431.970126,135,165,0.12,-2.435528418,0.5640933662,2.400406,435.666965,40,225,3,data01_direction4priors,12,8,37
146,435.893317,194,245,0.12,-0.3207367375,-2.479340224,1.165163,438.354962,40,225,3,data01_direction4priors,12,8,37
147,438.578698,273,285,0.06,0.5215430003,-2.444993435,0.887751,440.762972,40,225,3,data01_direction4priors,12,8,37
148,440.984577,272,315,0.12,1.226346122,-2.178548872,0.833884,443.114954,40,225,3,data01_direction4priors,12,8,37
149,443.340527,73,225,0.06,-1.155551367,-2.216912501,1.693929,446.330964,40,225,3,data01_direction4priors,12,8,37
150,446.554986,72,285,0.12,0.8460430156,-2.352490428,1.927474,449.778928,40,225,3,data01_direction4priors,12,8,37
151,450.00906,193,225,0.06,0.234398794,-2.488987185,1.849404,453.154964,40,225,3,data01_direction4priors,12,8,37
152,453.383251,359,215,0.12,-1.429823534,-2.050757094,1.939228,456.618985,40,225,3,data01_direction4priors,12,8,37
153,456.847318,272,235,0.06,-0.897724481,-2.333257542,0.955165,459.098965,40,225,3,data01_direction4priors,12,8,37
154,459.323038,330,135,0.12,-1.839066368,1.693468304,1.567381,462.186932,40,225,3,data01_direction4priors,12,8,37
155,462.407735,316,205,0.24,-1.92580757,-1.594134625,1.562695,465.266964,40,225,3,data01_direction4priors,12,8,37
156,465.49249,148,165,0.06,-2.427925739,0.595966949,1.486012,468.274966,40,225,3,data01_direction4priors,12,8,37
157,468.497411,127,265,0.24,-0.04504724074,-2.499594116,1.433165,471.226959,40,225,3,data01_direction4priors,12,8,37
158,471.452219,17,205,0.12,-2.498645935,-0.08227083868,1.502256,474.250964,40,225,3,data01_direction4priors,12,8,37
159,474.477008,36,215,0.12,-1.341218954,-2.109770536,1.821475,477.594994,40,225,3,data01_direction4priors,12,8,37
160,477.821269,151,265,0.12,-0.3961749315,-2.468409493,1.237214,480.354969,40,225,3,data01_direction4priors,12,8,37
161,480.576516,92,185,0.24,-2.438696458,-0.5502359382,1.489952,483.363,40,225,3,data01_direction4priors,12,8,37
162,483.591372,49,235,0.06,0.6518982245,-2.413509624,1.555151,486.442995,40,225,3,data01_direction4priors,12,8,37
163,486.666046,331,195,0.12,-2.432301899,-0.5778472744,1.432425,489.394987,40,225,3,data01_direction4priors,12,8,37
164,489.620938,147,175,0.06,-1.62760046,-1.897608163,1.517516,492.434946,40,225,3,data01_direction4priors,12,8,37
165,492.655821,128,305,0.06,0.7850717333,-2.373533731,1.202719,495.154971,40,225,3,data01_direction4priors,12,8,37
166,495.381095,92,255,0.12,-0.9478925173,-2.313330883,1.333394,498.010963,40,225,3,data01_direction4priors,12,8,37
167,498.236163,321,205,0.12,-2.495691894,-0.1467036836,1.470325,501.002996,40,225,3,data01_direction4priors,12,8,37
168,501.23101,33,185,0.12,-2.499923305,0.01958240371,1.355468,503.882999,40,225,3,data01_direction4priors,12,8,37
169,504.10607,196,235,0.12,-0.8189537289,-2.362057321,0.896373,506.298963,40,225,3,data01_direction4priors,12,8,37
170,506.521899,166,205,0.06,-1.103910881,-2.243073955,1.288492,509.106937,40,225,3,data01_direction4priors,12,8,37
171,509.337083,320,205,0.24,-2.338628849,-0.8836374289,1.185367,511.818962,40,225,3,data01_direction4priors,12,8,37
172,512.042496,308,255,0.06,-0.3463175147,-2.475896641,1.552071,514.890998,40,225,3,data01_direction4priors,12,8,37
173,515.117154,264,235,0.12,-0.8500044641,-2.351061975,0.75727,517.170938,40,225,3,data01_direction4priors,12,8,37
174,517.393273,97,185,0.12,-2.463613279,0.4249818954,1.489268,520.179004,40,225,3,data01_direction4priors,12,8,37
175,520.408027,224,185,0.06,-2.406568644,0.6770726404,2.706426,524.410995,40,225,3,data01_direction4priors,12,8,37
176,524.640787,7,195,0.12,-2.417012087,-0.6387899286,1.409691,527.347,40,225,3,data01_direction4priors,12,8,37
177,527.575813,178,265,0.06,-1.344661286,-2.107578237,1.04273,529.914978,40,225,3,data01_direction4priors,12,8,37
178,530.141319,301,265,0.06,1.107300168,-2.241402761,1.741181,533.178973,40,225,3,data01_direction4priors,12,8,37
179,533.405725,1,155,0.24,-2.109678106,1.341364338,1.348733,536.050982,40,225,3,data01_direction4priors,12,8,37
180,536.280775,226,225,0.06,-0.9043740034,-2.330688238,2.025689,539.602973,40,225,3,data01_direction4priors,12,8,37
181,539.824681,290,245,0.06,0.8498822382,-2.351106161,0.985829,542.107019,40,225,3,data01_direction4priors,12,8,37
182,542.330392,8,215,0.12,-1.594765497,-1.925285176,1.600154,545.226979,40,225,3,data01_direction4priors,12,8,37
183,545.454991,345,275,0.06,2.189146507,-1.207326621,1.123496,547.875009,40,225,3,data01_direction4priors,12,8,37
184,548.100514,58,205,0.06,-0.8391294252,-2.354965352,1.670043,551.067,40,225,3,data01_direction4priors,12,8,37
185,551.294999,136,215,0.06,-2.49888585,-0.07462913154,1.139511,553.730976,40,225,3,data01_direction4priors,12,8,37
186,553.960382,70,205,0.06,-1.882908167,-1.644584091,1.210114,556.467008,40,225,3,data01_direction4priors,12,8,37
187,556.695683,260,285,0.06,1.117185152,-2.236492195,1.098754,559.090942,40,225,3,data01_direction4priors,12,8,37
188,559.32117,294,225,0.24,-1.90001122,-1.62479456,0.985314,561.60298,40,225,3,data01_direction4priors,12,8,37
189,561.8269,51,165,0.06,-1.901878611,-1.622608317,1.463628,564.587004,40,225,3,data01_direction4priors,12,8,37
190,564.811782,247,205,0.12,-2.397622102,-0.7081018684,0.950752,567.05898,40,225,3,data01_direction4priors,12,8,37
191,567.287454,245,275,0.24,0.5002712168,-2.449434365,1.155021,569.739003,40,225,3,data01_direction4priors,12,8,37
192,569.962828,260,245,0.06,-1.191387536,-2.197861629,1.231605,572.490982,40,225,3,data01_direction4priors,12,8,37
193,572.718148,139,205,0.06,-2.214923648,-1.159358976,1.196326,575.210972,40,225,3,data01_direction4priors,12,8,37
194,575.433502,261,175,0.06,-2.329443663,-0.9075749108,1.273052,578.003004,40,225,3,data01_direction4priors,12,8,37
195,578.228678,307,175,0.06,-1.542973271,1.967036727,1.997868,581.522986,40,225,3,data01_direction4priors,12,8,37
196,581.75261,276,195,0.12,-2.378291102,-0.7705397042,1.257818,584.306948,40,225,3,data01_direction4priors,12,8,37
197,584.527849,24,195,0.06,-2.425396257,0.6061790148,1.394624,587.218985,40,225,3,data01_direction4priors,12,8,37
198,587.443292,188,255,0.06,1.34198151,-2.109285573,1.471663,590.211006,40,225,3,data01_direction4priors,12,8,37
199,590.437757,88,235,0.06,-1.608053828,-1.914200326,1.796745,593.530947,40,225,3,data01_direction4priors,12,8,37
200,593.751994,26,185,0.06,-1.605983311,-1.915937788,1.474464,596.522973,40,225,3,data01_direction4priors,12,8,37
201,596.746883,88,195,0.12,-2.310273429,-0.9553201991,1.143618,599.186984,40,225,3,data01_direction4priors,12,8,37
202,599.412256,143,235,0.06,-2.379281511,-0.7674760526,1.558169,602.266948,40,225,3,data01_direction4priors,12,8,37
1,0,339,245,0.06,-1.644552224,-1.882936001,1.214165,2.523008,20,225,3,data01_direction4priors,12,8,38
2,2.747661,231,215,0.06,-1.248437958,-2.165964604,1.142921,5.187074,20,225,3,data01_direction4priors,12,8,38
3,5.413046,201,225,0.06,-1.660599183,-1.868799174,0.909229,7.618798,20,225,3,data01_direction4priors,12,8,38
4,7.848752,201,225,0.06,-1.804632613,-1.73011593,1.449636,10.595001,20,225,3,data01_direction4priors,12,8,38
5,10.823764,57,215,0.24,-1.571497204,-1.944324185,2.4348,14.555078,20,225,3,data01_direction4priors,12,8,38
6,14.776927,84,245,0.12,-0.3203950249,-2.479384405,1.625315,17.698835,20,225,3,data01_direction4priors,12,8,38
7,17.921435,114,245,0.06,-1.502821636,-1.99788066,1.64899,20.867011,20,225,3,data01_direction4priors,12,8,38
8,21.096049,128,235,0.06,-1.329165374,-2.11738504,1.210408,23.603009,20,225,3,data01_direction4priors,12,8,38
9,23.831357,103,225,0.06,-1.565946668,-1.94879733,1.731147,26.859042,20,225,3,data01_direction4priors,12,8,38
10,27.085767,93,235,0.12,-1.742906104,-1.792282989,1.868803,30.251061,20,225,3,data01_direction4priors,12,8,38
11,30.479964,91,245,0.06,-1.341364338,-2.109678106,1.482555,33.25904,20,225,3,data01_direction4priors,12,8,38
12,33.484726,118,205,0.06,-1.187798024,-2.199803595,1.229667,36.010933,20,225,3,data01_direction4priors,12,8,38
13,36.240047,189,215,0.06,-1.887928805,-1.638818119,0.914427,38.450901,20,225,3,data01_direction4priors,12,8,38
14,38.675798,265,205,0.12,-2.449503291,-0.4999336242,1.150683,41.123008,20,225,3,data01_direction4priors,12,8,38
15,41.35124,76,215,0.12,-1.700687551,-1.832392385,1.539157,44.186943,20,225,3,data01_direction4priors,12,8,38
16,44.415931,4,205,0.06,-0.6947073474,-2.401537362,1.458523,47.171112,20,225,3,data01_direction4priors,12,8,38
17,47.400842,1,235,0.12,-1.948878736,-1.565845354,1.873649,50.571031,20,225,3,data01_direction4priors,12,8,38
18,50.795105,55,225,0.12,-1.784058296,-1.75132407,1.871488,53.963081,20,225,3,data01_direction4priors,12,8,38
19,54.189213,19,235,0.24,-1.458635627,-2.030365019,2.16511,57.650832,20,225,3,data01_direction4priors,12,8,38
20,57.87277,305,235,0.06,-1.045207031,-2.271022294,1.481579,60.651016,20,225,3,data01_direction4priors,12,8,38
21,60.877662,47,235,0.06,-1.748009627,-1.78730589,1.948783,64.123015,20,225,3,data01_direction4priors,12,8,38
22,64.351698,154,245,0.06,-1.698199766,-1.834698219,1.27483,66.923077,20,225,3,data01_direction4priors,12,8,38
23,67.146894,245,215,0.24,-2.203161604,-1.181557848,1.143705,69.587013,20,225,3,data01_direction4priors,12,8,38
24,69.812348,171,205,0.12,-0.9042133902,-2.330750554,1.246058,72.354937,20,225,3,data01_direction4priors,12,8,38
25,72.577579,296,265,0.06,-1.216979919,-2.183794834,1.192964,75.067079,20,225,3,data01_direction4priors,12,8,38
26,75.292953,101,225,0.06,-0.7669438867,-2.379453104,1.813398,78.402849,20,225,3,data01_direction4priors,12,8,38
27,78.62723,123,205,0.06,-1.806978401,-1.727665783,1.239245,81.162959,20,225,3,data01_direction4priors,12,8,38
28,81.392484,162,175,0.06,-0.5141905079,-2.446550249,1.15405,83.843034,20,225,3,data01_direction4priors,12,8,38
29,84.067834,234,205,0.06,-0.5712035883,-2.433870675,3.150443,88.514832,20,225,3,data01_direction4priors,12,8,38
30,88.739824,320,255,0.06,-1.348100035,-2.105380321,1.198779,91.235053,20,225,3,data01_direction4priors,12,8,38
31,91.465126,249,265,0.12,-0.7118092457,-2.396524066,0.753316,93.515017,20,225,3,data01_direction4priors,12,8,38
32,93.741221,315,235,0.06,-0.6349691049,-2.418018659,1.261342,96.299077,20,225,3,data01_direction4priors,12,8,38
33,96.526429,32,225,0.24,-1.920592586,-1.600413733,2.012262,99.83511,20,225,3,data01_direction4priors,12,8,38
34,100.06024,171,205,0.12,-2.11717933,-1.329493017,1.190261,102.547075,20,225,3,data01_direction4priors,12,8,38
35,102.775657,213,235,0.24,-1.405485733,-2.067512964,1.082845,105.15511,20,225,3,data01_direction4priors,12,8,38
36,105.381181,216,195,0.12,-0.938149026,-2.317299378,1.053136,107.730871,20,225,3,data01_direction4priors,12,8,38
37,107.956694,154,225,0.12,-0.849680426,-2.351179103,1.31779,110.571087,20,225,3,data01_direction4priors,12,8,38
38,110.791912,240,265,0.06,-1.732780773,-1.802074026,1.962647,114.051015,20,225,3,data01_direction4priors,12,8,38
39,114.275929,328,255,0.24,-0.4719215586,-2.45505398,1.462687,117.035073,20,225,3,data01_direction4priors,12,8,38
40,117.260785,340,205,0.06,-1.286344568,-2.143669203,1.613881,120.171091,20,225,3,data01_direction4priors,12,8,38
41,120.395313,176,195,0.06,-0.5035527447,-2.448761857,1.335105,123.02702,20,225,3,data01_direction4priors,12,8,38
42,123.250502,350,215,0.06,-1.255056041,-2.162136521,1.584003,126.131026,20,225,3,data01_direction4priors,12,8,38
43,126.355074,230,235,0.12,-1.895145775,-1.630466955,0.879249,128.530825,20,225,3,data01_direction4priors,12,8,38
44,128.760933,337,255,0.06,-0.4790891954,-2.453665328,1.625509,131.682939,20,225,3,data01_direction4priors,12,8,38
45,131.905604,174,205,0.12,-2.496478809,-0.1326407005,0.848879,134.051013,20,225,3,data01_direction4priors,12,8,38
46,134.271527,181,255,0.12,-0.4857457708,-2.452356223,1.746738,137.314806,20,225,3,data01_direction4priors,12,8,38
47,137.535941,3,205,0.06,-1.608713284,-1.913646146,1.442533,140.274968,20,225,3,data01_direction4priors,12,8,38
48,140.500836,134,205,0.24,-1.60258904,-1.918777832,1.725727,143.523082,20,225,3,data01_direction4priors,12,8,38
49,143.745262,268,205,0.24,-1.98461205,-1.520300961,1.001163,146.042963,20,225,3,data01_direction4priors,12,8,38
50,146.2709,353,225,0.06,-0.9587330805,-2.308859216,1.683534,149.250978,20,225,3,data01_direction4priors,12,8,38
51,149.475426,323,215,0.06,-1.40577067,-2.067319236,1.615228,152.38711,20,225,3,data01_direction4priors,12,8,38
52,152.609929,59,225,0.06,-1.801805861,-1.733059618,1.488645,155.395187,20,225,3,data01_direction4priors,12,8,38
53,155.624816,103,215,0.06,-1.565946668,-1.94879733,1.457434,158.378817,20,225,3,data01_direction4priors,12,8,38
54,158.599585,176,225,0.06,-0.5035527447,-2.448761857,1.114766,161.011005,20,225,3,data01_direction4priors,12,8,38
55,161.235244,206,235,0.06,-0.5923374113,-2.428813783,1.119396,163.651128,20,225,3,data01_direction4priors,12,8,38
56,163.880628,58,235,0.06,-1.689956086,-1.842294338,1.537912,166.715092,20,225,3,data01_direction4priors,12,8,38
57,166.945391,23,275,0.12,-0.4720907387,-2.455021453,1.865314,170.107115,20,225,3,data01_direction4priors,12,8,38
58,170.329543,223,225,0.12,-1.204053289,-2.190948579,0.936954,172.563039,20,225,3,data01_direction4priors,12,8,38
59,172.785295,352,195,0.06,-2.063667501,-1.411125949,1.553143,175.635007,20,225,3,data01_direction4priors,12,8,38
60,175.860037,94,225,0.12,-1.560248795,-1.953362152,1.190239,178.346859,20,225,3,data01_direction4priors,12,8,38
61,178.575304,265,255,0.12,-0.4216388339,-2.464187634,0.819036,180.690956,20,225,3,data01_direction4priors,12,8,38
62,180.921302,104,235,0.12,-1.684696002,-1.847105677,1.481121,183.699008,20,225,3,data01_direction4priors,12,8,38
63,183.926222,355,185,0.06,-1.859385465,-1.671133057,1.708279,186.93103,20,225,3,data01_direction4priors,12,8,38
64,187.160623,119,235,0.12,-0.3924851084,-2.468998874,1.329925,189.78698,20,225,3,data01_direction4priors,12,8,38
65,190.015739,352,225,0.06,-1.669090267,-1.861219407,1.522777,192.835032,20,225,3,data01_direction4priors,12,8,38
66,193.060495,147,205,0.06,-2.319949278,-0.9315768078,0.982021,195.339033,20,225,3,data01_direction4priors,12,8,38
67,195.566174,49,265,0.06,-1.368756133,-2.092010193,2.156108,199.01882,20,225,3,data01_direction4priors,12,8,38
68,199.239856,165,215,0.24,-1.784299651,-1.751078169,1.002731,201.538998,20,225,3,data01_direction4priors,12,8,38
69,201.765593,226,245,0.12,-1.087737787,-2.250961241,1.396972,204.459063,20,225,3,data01_direction4priors,12,8,38
70,204.680444,140,195,0.24,-2.35716228,-0.8329381635,1.04994,207.027038,20,225,3,data01_direction4priors,12,8,38
71,207.256087,206,235,0.06,-0.9717259095,-2.303421098,1.010511,209.563031,20,225,3,data01_direction4priors,12,8,38
72,209.79174,278,215,0.06,-1.832246398,-1.70084483,1.074818,212.162993,20,225,3,data01_direction4priors,12,8,38
73,212.387278,165,225,0.06,-1.638656061,-1.888069468,1.039077,214.722844,20,225,3,data01_direction4priors,12,8,38
74,214.952897,247,245,0.06,-0.4072390578,-2.466608268,0.705482,216.95488,20,225,3,data01_direction4priors,12,8,38
75,217.179322,304,225,0.12,-2.00223559,-1.497014577,1.223646,219.699105,20,225,3,data01_direction4priors,12,8,38
76,219.924307,69,225,0.06,-1.776430049,-1.759061193,1.206155,222.427014,20,225,3,data01_direction4priors,12,8,38
77,222.64955,52,215,0.12,-1.873270526,-1.655553544,1.712825,225.658995,20,225,3,data01_direction4priors,12,8,38
78,225.884103,272,195,0.12,-1.426615325,-2.052990189,1.10225,228.282859,20,225,3,data01_direction4priors,12,8,38
79,228.509474,16,255,0.12,-1.137005348,-2.226481268,1.788833,231.594923,20,225,3,data01_direction4priors,12,8,38
80,231.823884,97,235,0.12,-0.9310579079,-2.320157575,1.394637,234.515127,20,225,3,data01_direction4priors,12,8,38
81,234.738846,79,225,0.06,-1.602456811,-1.918888264,1.935516,237.970851,20,225,3,data01_direction4priors,12,8,38
82,238.19283,94,215,0.12,-0.8665810032,-2.345002636,1.409753,240.899132,20,225,3,data01_direction4priors,12,8,38
83,241.12789,64,225,0.12,-2.152938195,-1.27077029,1.394679,243.819091,20,225,3,data01_direction4priors,12,8,38
84,244.042854,202,215,0.06,-1.627731223,-1.897495999,0.807764,246.147112,20,225,3,data01_direction4priors,12,8,38
85,246.368865,0,235,0.12,-1.045363528,-2.270950262,1.593647,249.259046,20,225,3,data01_direction4priors,12,8,38
86,249.483544,0,245,0.12,-1.393815119,-2.075398616,1.542991,252.323135,20,225,3,data01_direction4priors,12,8,38
87,252.548248,180,245,0.06,-0.1324264128,-2.496490185,1.278433,255.123153,20,225,3,data01_direction4priors,12,8,38
88,255.353422,217,195,0.24,-2.491274568,-0.2086888291,0.76112,257.411116,20,225,3,data01_direction4priors,12,8,38
89,257.639426,271,215,0.12,-2.136455451,-1.298290456,1.115236,260.051125,20,225,3,data01_direction4priors,12,8,38
90,260.274975,120,225,0.12,-1.285753626,-2.144023697,1.311598,262.883126,20,225,3,data01_direction4priors,12,8,38
91,263.110045,61,225,0.12,-0.610638767,-2.424277273,1.972528,266.379141,20,225,3,data01_direction4priors,12,8,38
92,266.604088,265,245,0.24,-0.6172151097,-2.422611299,0.958215,268.858831,20,225,3,data01_direction4priors,12,8,38
93,269.079811,285,245,0.24,-0.5465490658,-2.439525388,0.946709,271.323024,20,225,3,data01_direction4priors,12,8,38
94,271.545592,149,255,0.12,0.511249214,-2.447166574,1.304973,274.147033,20,225,3,data01_direction4priors,12,8,38
95,274.370742,356,235,0.24,-1.535192344,-1.973115421,1.503828,277.171079,20,225,3,data01_direction4priors,12,8,38
96,277.395477,25,225,0.24,-0.3861241407,-2.470001649,1.767157,280.459115,20,225,3,data01_direction4priors,12,8,38
97,280.67986,101,205,0.24,-2.145567712,-1.283175433,1.250566,283.226985,20,225,3,data01_direction4priors,12,8,38
98,283.455107,250,225,0.06,0.3209495525,-2.479312684,0.971337,285.722985,20,225,3,data01_direction4priors,12,8,38
99,285.950838,89,225,0.06,-1.990888104,-1.512072934,1.299501,288.546864,20,225,3,data01_direction4priors,12,8,38
100,288.775844,64,245,0.06,-1.322829991,-2.12134882,1.650616,291.723127,20,225,3,data01_direction4priors,12,8,38
101,291.950521,221,215,0.06,-1.279782815,-2.147593059,0.875975,294.123044,20,225,3,data01_direction4priors,12,8,38
102,294.346388,50,205,0.06,-0.790979332,-2.371571567,1.376164,297.01904,20,225,3,data01_direction4priors,12,8,38
103,297.2414,206,245,0.12,-2.329381116,-0.9077354339,1.553271,300.091122,20,225,3,data01_direction4priors,12,8,38
104,300.316443,42,245,0.12,-0.7425009256,-2.38719341,1.222377,302.835039,20,225,3,data01_direction4priors,12,8,38
105,303.061489,162,235,0.06,-0.5141905079,-2.446550249,1.237041,305.595042,20,225,3,data01_direction4priors,12,8,38
106,305.816659,331,235,0.12,-1.605851277,-1.916048454,1.289695,308.402901,20,225,3,data01_direction4priors,12,8,38
107,308.631763,199,235,0.06,-1.574669145,-1.941756186,1.530753,311.459121,20,225,3,data01_direction4priors,12,8,38
108,311.686629,237,225,0.12,-1.824719324,-1.708917607,0.763919,313.747048,20,225,3,data01_direction4priors,12,8,38
109,313.972667,269,245,0.06,-0.8328982699,-2.357176377,0.829781,316.098977,20,225,3,data01_direction4priors,12,8,38
110,316.328639,54,235,0.06,-1.517162433,-1.987012368,1.449778,319.074887,20,225,3,data01_direction4priors,12,8,38
111,319.303486,12,245,0.06,-1.209843521,-2.187756535,1.555141,322.155169,20,225,3,data01_direction4priors,12,8,38
112,322.378213,162,185,0.24,-2.426164739,-0.603095894,1.4002,325.074951,20,225,3,data01_direction4priors,12,8,38
113,325.303183,99,215,0.24,-1.839271092,-1.693245951,1.259286,327.859,20,225,3,data01_direction4priors,12,8,38
114,328.088388,82,185,0.06,-1.799333159,-1.73562674,2.410139,331.79508,20,225,3,data01_direction4priors,12,8,38
115,332.021624,314,235,0.12,-2.359755433,-0.8255630172,1.812824,335.131,20,225,3,data01_direction4priors,12,8,38
116,335.355952,317,225,0.06,-2.434790299,-0.5672708345,1.502353,338.154871,20,225,3,data01_direction4priors,12,8,38
117,338.380625,62,255,0.24,-0.2806170815,-2.484200888,1.493963,341.17114,20,225,3,data01_direction4priors,12,8,38
118,341.395626,225,245,0.12,-1.12685681,-2.231634766,1.647022,344.339048,20,225,3,data01_direction4priors,12,8,38
119,344.560066,267,235,0.12,-2.010842694,-1.485433155,1.074437,346.931106,20,225,3,data01_direction4priors,12,8,38
120,347.155654,321,235,0.06,-1.31115076,-2.128587251,1.270991,349.72305,20,225,3,data01_direction4priors,12,8,38
121,349.950807,340,195,0.06,-2.443578097,0.5281345311,2.051708,353.299054,20,225,3,data01_direction4priors,12,8,38
122,353.524683,34,225,0.12,-1.9907839,-1.512210125,1.389838,356.211049,20,225,3,data01_direction4priors,12,8,38
123,356.439657,114,265,0.24,-0.01228163626,-2.499969832,1.530886,359.267045,20,225,3,data01_direction4priors,12,8,38
124,359.494424,156,225,0.12,-2.036260938,-1.45039353,1.036164,361.827108,20,225,3,data01_direction4priors,12,8,38
125,362.050019,283,215,0.06,-1.523505191,-1.982153357,1.3125,364.659064,20,225,3,data01_direction4priors,12,8,38
126,364.885186,153,195,0.12,-2.367876977,-0.8019717094,1.17341,367.355087,20,225,3,data01_direction4priors,12,8,38
127,367.580575,264,225,0.06,-1.546419822,-1.964328316,0.934145,369.811102,20,225,3,data01_direction4priors,12,8,38
128,370.036322,262,205,0.06,-1.614031855,-1.909162427,0.870188,372.203007,20,225,3,data01_direction4priors,12,8,38
129,372.432134,224,195,0.12,-2.480261013,-0.3135367729,1.314375,375.043105,20,225,3,data01_direction4priors,12,8,38
130,375.267294,60,195,0.06,-1.301151909,-2.134713964,1.271234,377.835004,20,225,3,data01_direction4priors,12,8,38
131,378.062479,171,225,0.24,-1.432322332,-2.049012625,1.132173,380.491116,20,225,3,data01_direction4priors,12,8,38
132,380.717953,289,225,0.06,-1.133522743,-2.228256312,1.084588,383.09911,20,225,3,data01_direction4priors,12,8,38
133,383.323461,20,205,0.12,-1.997337287,-1.503543734,1.223126,385.843113,20,225,3,data01_direction4priors,12,8,38
134,386.068773,217,225,0.24,-1.257839626,-2.160518335,0.805875,388.171149,20,225,3,data01_direction4priors,12,8,38
135,388.394654,94,215,0.12,-1.711361,-1.822427921,1.263812,390.955144,20,225,3,data01_direction4priors,12,8,38
136,391.179932,292,225,0.06,-1.824837084,-1.708791859,1.094629,393.571119,20,225,3,data01_direction4priors,12,8,38
137,393.795484,186,215,0.24,-1.700940081,-1.832157974,1.006961,396.099013,20,225,3,data01_direction4priors,12,8,38
138,396.321131,101,225,0.12,-1.310563974,-2.128948583,1.377206,398.994864,20,225,3,data01_direction4priors,12,8,38
139,399.216061,343,215,0.12,-2.166201531,-1.248026814,1.658455,402.171132,20,225,3,data01_direction4priors,12,8,38
140,402.400631,243,215,0.12,-1.479798051,-2.014993233,1.009916,404.707048,20,225,3,data01_direction4priors,12,8,38
141,404.936336,324,235,0.12,-0.6420278899,-2.416154008,2.370038,408.602873,20,225,3,data01_direction4priors,12,8,38
142,408.82953,197,235,0.06,0.2090321815,-2.491245782,1.420836,411.547034,20,225,3,data01_direction4priors,12,8,38
143,411.774567,198,225,0.12,-2.128745752,-1.310893407,1.132024,414.203123,20,225,3,data01_direction4priors,12,8,38
144,414.42999,290,185,0.12,-2.429727002,-0.5885802369,1.180544,416.907068,20,225,3,data01_direction4priors,12,8,38
145,417.135222,330,225,0.06,-1.918861143,-1.602489286,1.459247,419.891021,20,225,3,data01_direction4priors,12,8,38
146,420.120235,255,205,0.12,-1.964515262,-1.546182327,0.986381,422.403143,20,225,3,data01_direction4priors,12,8,38
147,422.62589,251,245,0.06,-0.8191164996,-2.362000881,1.552717,425.475156,20,225,3,data01_direction4priors,12,8,38
148,425.700719,231,195,0.06,-2.294870978,-0.9917495631,1.245877,428.243006,20,225,3,data01_direction4priors,12,8,38
149,428.465798,162,235,0.12,-1.257690739,-2.160605009,1.376736,431.139117,20,225,3,data01_direction4priors,12,8,38
150,431.360893,237,235,0.24,-1.529151013,-1.977801097,1.497574,434.154992,20,225,3,data01_direction4priors,12,8,38
151,434.375679,205,215,0.12,-1.953120685,-1.560551054,1.090898,436.763151,20,225,3,data01_direction4priors,12,8,38
152,436.991222,317,205,0.06,-1.761562087,-1.773950116,1.71526,440.003009,20,225,3,data01_direction4priors,12,8,38
153,440.225703,293,225,0.12,-1.64991464,-1.878238984,1.016904,442.539131,20,225,3,data01_direction4priors,12,8,38
154,442.761412,173,215,0.12,-1.676780205,-1.854294514,1.425294,445.48313,20,225,3,data01_direction4priors,12,8,38
155,445.706232,198,245,0.06,-2.017177752,-1.47681885,0.840359,447.843123,20,225,3,data01_direction4priors,12,8,38
156,448.072175,254,235,0.06,-1.57480295,-1.941647668,1.370491,450.739092,20,225,3,data01_direction4priors,12,8,38
157,450.96721,225,215,0.12,-1.468003836,-2.023601922,0.979399,453.243135,20,225,3,data01_direction4priors,12,8,38
158,453.472875,333,175,0.12,-2.455877654,-0.4676162405,1.545777,456.315208,20,225,3,data01_direction4priors,12,8,38
159,456.537622,42,255,0.06,-1.897131895,-1.628155574,1.816775,459.650922,20,225,3,data01_direction4priors,12,8,38
160,459.871849,111,255,0.06,-1.605323066,-1.916491027,1.9466,463.114957,20,225,3,data01_direction4priors,12,8,38
161,463.335929,73,275,0.06,-1.329019459,-2.11747663,1.4665,466.098972,20,225,3,data01_direction4priors,12,8,38
162,466.320756,276,215,0.06,-1.279930806,-2.147504862,0.857509,468.474889,20,225,3,data01_direction4priors,12,8,38
163,468.696643,3,235,0.06,-1.893044317,-1.63290637,1.441885,471.435128,20,225,3,data01_direction4priors,12,8,38
164,471.661612,57,205,0.12,-1.571497204,-1.944324185,1.364989,474.323137,20,225,3,data01_direction4priors,12,8,38
165,474.546624,249,215,0.06,-1.58887016,-1.930153262,0.839897,476.683072,20,225,3,data01_direction4priors,12,8,38
166,476.912586,27,245,0.06,-1.72260044,-1.811807861,2.05776,480.266892,20,225,3,data01_direction4priors,12,8,38
167,480.496439,346,245,0.12,-0.6806688351,-2.405553977,1.626129,483.419138,20,225,3,data01_direction4priors,12,8,38
168,483.641037,170,265,0.12,-0.3674843156,-2.472843561,1.561444,486.499013,20,225,3,data01_direction4priors,12,8,38
169,486.72582,164,225,0.06,-1.001675127,-2.290556033,1.092572,489.114894,20,225,3,data01_direction4priors,12,8,38
170,489.341137,203,235,0.06,-0.9076960104,-2.329396478,1.1573,491.794964,20,225,3,data01_direction4priors,12,8,38
171,492.016591,185,215,0.12,-1.423403628,-2.055218264,1.066017,494.379129,20,225,3,data01_direction4priors,12,8,38
172,494.602215,245,225,0.06,-1.986777568,-1.5174699,0.984417,496.88314,20,225,3,data01_direction4priors,12,8,38
173,497.107934,153,205,0.06,-0.8905847489,-2.335992039,1.310595,499.715014,20,225,3,data01_direction4priors,12,8,38
174,499.943033,267,205,0.06,-0.7257944858,-2.392325723,1.867595,503.107073,20,225,3,data01_direction4priors,12,8,38
175,503.337168,124,185,0.12,-2.388033248,-0.7397953823,1.425384,506.059144,20,225,3,data01_direction4priors,12,8,38
176,506.282105,25,215,0.06,-1.78478226,-1.750586268,1.67227,509.250925,20,225,3,data01_direction4priors,12,8,38
177,509.476509,84,215,0.06,-1.875742888,-1.652751832,1.565872,512.33906,20,225,3,data01_direction4priors,12,8,38
178,512.561341,63,245,0.12,-1.359651159,-2.097939162,1.385272,515.243129,20,225,3,data01_direction4priors,12,8,38
179,515.466407,348,235,0.12,-2.157075681,-1.263734349,1.75218,518.515063,20,225,3,data01_direction4priors,12,8,38
180,518.740638,52,215,0.06,-1.080693496,-2.254351696,1.413882,521.45112,20,225,3,data01_direction4priors,12,8,38
181,521.675776,60,225,0.24,-0.7564311447,-2.382815965,1.814771,524.786973,20,225,3,data01_direction4priors,12,8,38
182,525.009914,164,255,0.12,-1.18152056,-2.203181601,1.632601,527.939082,20,225,3,data01_direction4priors,12,8,38
183,528.164498,270,215,0.06,-0.7916330152,-2.371353447,1.310136,530.771079,20,225,3,data01_direction4priors,12,8,38
184,530.999663,98,235,0.24,-1.251226479,-2.164354938,1.842906,534.139084,20,225,3,data01_direction4priors,12,8,38
185,534.363873,347,235,0.06,-1.194822546,-2.195996148,1.43069,537.09113,20,225,3,data01_direction4priors,12,8,38
186,537.318702,112,195,0.12,-2.489661101,-0.2271290479,1.371661,539.986964,20,225,3,data01_direction4priors,12,8,38
187,540.213796,141,215,0.12,-2.264933838,-1.05833582,1.916556,543.426961,20,225,3,data01_direction4priors,12,8,38
188,543.647909,279,255,0.06,-1.802283503,-1.732562892,1.210726,546.155168,20,225,3,data01_direction4priors,12,8,38
189,546.383116,331,215,0.12,-1.28007879,-2.147416655,1.211162,548.8909,20,225,3,data01_direction4priors,12,8,38
190,549.118417,232,215,0.06,-2.08376629,-1.381274067,1.14009,551.55514,20,225,3,data01_direction4priors,12,8,38
191,551.783865,117,245,0.24,-0.8632367878,-2.346235761,1.682633,554.763078,20,225,3,data01_direction4priors,12,8,38
192,554.988411,155,205,0.12,-2.167721258,-1.245385301,1.062258,557.347196,20,225,3,data01_direction4priors,12,8,38
193,557.574003,338,255,0.06,-1.360373938,-2.09747056,1.19658,560.066979,20,225,3,data01_direction4priors,12,8,38
194,560.289295,283,215,0.06,-1.951001506,-1.563199643,1.457292,563.043071,20,225,3,data01_direction4priors,12,8,38
195,563.264262,37,225,0.24,-1.129576321,-2.230259477,1.85031,566.411034,20,225,3,data01_direction4priors,12,8,38
196,566.638411,268,185,0.06,-2.362099893,-0.8188309314,1.131823,569.066904,20,225,3,data01_direction4priors,12,8,38
197,569.293731,266,215,0.06,-0.3785686122,-2.471170938,1.636758,572.227055,20,225,3,data01_direction4priors,12,8,38
198,572.448382,207,205,0.12,-1.89746845,-1.627763337,1.289593,575.035081,20,225,3,data01_direction4priors,12,8,38
199,575.263555,36,225,0.12,-1.341218954,-2.109770536,1.723048,578.283146,20,225,3,data01_direction4priors,12,8,38
200,578.507929,124,245,0.12,-2.034090849,-1.453435384,1.41459,581.219152,20,225,3,data01_direction4priors,12,8,38
201,581.442914,298,225,0.06,-1.636223048,-1.890178335,1.023702,583.763168,20,225,3,data01_direction4priors,12,8,38
202,583.988576,92,235,0.06,-1.909023878,-1.614195723,1.349989,586.635081,20,225,3,data01_direction4priors,12,8,38
203,586.863664,207,195,0.06,-1.456159541,-2.032141577,1.282743,589.442932,20,225,3,data01_direction4priors,12,8,38
204,589.668651,287,235,0.06,-1.83720567,-1.695486752,1.709746,592.675129,20,225,3,data01_direction4priors,12,8,38
1,0,123,205,0.06,-1.344516047,-2.107670894,1.300208,2.609283,80,225,3,data01_direction4priors,12,8,39
2,2.837693,13,245,0.06,0.6800464444,-2.40573,1.467333,5.601537,80,225,3,data01_direction4priors,12,8,39
3,5.822561,350,225,0.12,-0.5112077971,-2.447175226,1.282422,8.401495,80,225,3,data01_direction4priors,12,8,39
4,8.627691,327,225,0.12,-0.5146962825,-2.446443896,1.189187,11.113431,80,225,3,data01_direction4priors,12,8,39
5,11.343042,262,295,0.06,-1.289251949,-2.141921897,1.090053,13.729534,80,225,3,data01_direction4priors,12,8,39
6,13.958552,234,185,0.06,-2.034291147,-1.453155026,0.86636,16.121439,80,225,3,data01_direction4priors,12,8,39
7,16.344425,215,265,0.06,2.393507367,-0.7218881392,1.520465,19.161451,80,225,3,data01_direction4priors,12,8,39
8,19.389196,12,265,0.24,-0.550362718,-2.438667849,2.219641,22.905394,80,225,3,data01_direction4priors,12,8,39
9,23.132751,207,65,0.06,2.446399708,0.5149062731,1.868213,26.29749,80,225,3,data01_direction4priors,12,8,39
10,26.526956,344,255,0.24,-1.133676293,-2.228178194,1.697977,29.521456,80,225,3,data01_direction4priors,12,8,39
11,29.751467,225,275,0.12,0.8157880926,-2.363152511,0.857281,31.905283,80,225,3,data01_direction4priors,12,8,39
12,32.127216,145,285,0.12,1.444721936,-2.040288835,1.929595,35.353531,80,225,3,data01_direction4priors,12,8,39
13,35.58141,326,315,0.06,2.447962947,0.5074223214,1.71563,38.593488,80,225,3,data01_direction4priors,12,8,39
14,38.81585,328,325,0.06,1.591520191,-1.927968745,1.241,41.353352,80,225,3,data01_direction4priors,12,8,39
15,41.58105,58,5,0.12,2.395543963,0.7151007762,1.115791,43.993377,80,225,3,data01_direction4priors,12,8,39
16,44.216546,184,245,0.06,1.191576186,-2.197759357,1.032407,46.545494,80,225,3,data01_direction4priors,12,8,39
17,46.772133,126,235,0.06,-1.982127573,-1.523538738,1.548753,49.61744,80,225,3,data01_direction4priors,12,8,39
18,49.846858,115,265,0.12,1.002345232,-2.290262875,2.073951,53.21735,80,225,3,data01_direction4priors,12,8,39
19,53.440593,341,135,0.12,-1.677194892,1.853919441,2.176262,56.913444,80,225,3,data01_direction4priors,12,8,39
20,57.134374,69,165,0.12,-1.839971038,-1.692485326,2.30662,60.73751,80,225,3,data01_direction4priors,12,8,39
